File: scripts/data/230331_Photocatalysis_with_Zeeshan_data_CMKim.csv
Catalyst,Hydrothermal synthesis time (min),Energy Band gap (Eg) eV,C (At%),O (At%),Fe (At%),Al (At%),Ni (At%),Mo (At%),S (At%),Bi,Ag,Pd,Pt,Surface area (m2/g),Pore volume (cm3/g),Pore size (nm),volume (L),loading (g),Catalyst_loading_mg,Light intensity (watt),Light source distance (cm),Time (m),Dye,Dye concentration (mg/L),Solution pH,Ci,HA (mg/L),Anions,log_Kw,hydrogen_bonding_acceptor_count,hydrogen_bonding_donor_count,solubility (g/L),molecular_wt (g/mol),Cf,Efficiency
LTH,300,3.03,39.85,39.84,6.08,6.76,7.47,0,0,0,0,0,0,140,0.269,8.29,0.02,0.02,20,105,9,150,Indigo,20,5,19.0345,0,0,3.0606,9,2,10,466.36,12.6437,33.5749
LTH,300,3.03,39.85,39.84,6.08,6.76,7.47,0,0,0,0,0,0,140,0.269,8.29,0.02,0.02,20,105,9,150,Indigo,20,5,19.0345,0,0,3.0606,9,2,10,466.36,12.8736,32.3671
LTH,300,3.03,39.85,39.84,6.08,6.76,7.47,0,0,0,0,0,0,140,0.269,8.29,0.02,0.02,20,105,9,150,Indigo,20,7,19.0345,0,0,3.0606,9,2,10,466.36,11.4483,39.8551
LTH,300,3.03,39.85,39.84,6.08,6.76,7.47,0,0,0,0,0,0,140,0.269,8.29,0.02,0.02,20,105,9,150,Indigo,20,9,19.0345,0,0,3.0606,9,2,10,466.36,11.6782,38.6473
LTH,300,3.03,39.85,39.84,6.08,6.76,7.47,0,0,0,0,0,0,140,0.269,8.29,0.02,0.02,20,105,9,150,Indigo,20,9,19.0345,0,0,3.0606,9,2,10,466.36,11.3914,40.1541
LTH,300,3.03,39.85,39.84,6.08,6.76,7.47,0,0,0,0,0,0,140,0.269,8.29,0.02,0.02,20,105,9,150,Indigo,20,11,19.0345,0,0,3.0606,9,2,10,466.36,11.9839,37.0411
LTH,300,3.03,39.85,39.84,6.08,6.76,7.47,0,0,0,0,0,0,140,0.269,8.29,0.02,0.02,20,105,9,30,Indigo,20,11,19.0345,0,0,3.0606,9,2,10,466.36,16.2529,14.6135
LTH,300,3.03,39.85,39.84,6.08,6.76,7.47,0,0,0,0,0,0,140,0.269,8.29,0.02,0.02,20,105,9,30,Indigo,20,11,19.0345,0,0,3.0606,9,2,10,466.36,16.9057,11.1836
LTH,300,3.03,39.85,39.84,6.08,6.76,7.47,0,0,0,0,0,0,140,0.269,8.29,0.02,0.02,20,105,9,40,Indigo,20,11,19.0345,0,0,3.0606,9,2,10,466.36,14.6025,23.2838
LTH,300,3.03,39.85,39.84,6.08,6.76,7.47,0,0,0,0,0,0,140,0.269,8.29,0.02,0.02,20,105,9,50,Indigo,20,11,19.0345,0,0,3.0606,9,2,10,466.36,13.4873,29.1429
LTH,300,3.03,39.85,39.84,6.08,6.76,7.47,0,0,0,0,0,0,140,0.269,8.29,0.02,0.02,20,105,9,50,Indigo,20,11,19.0345,0,0,3.0606,9,2,10,466.36,12.7693,32.9149
LTH,300,3.03,39.85,39.84,6.08,6.76,7.47,0,0,0,0,0,0,140,0.269,8.29,0.02,0.02,20,105,9,60,Indigo,20,11,19.0345,0,0,3.0606,9,2,10,466.36,12.8171,32.6636
LTH,300,3.03,39.85,39.84,6.08,6.76,7.47,0,0,0,0,0,0,140,0.269,8.29,0.02,0.02,20,105,9,80,Indigo,20,11,19.0345,0,0,3.0606,9,2,10,466.36,12.8347,32.5714
LTH,300,3.03,39.85,39.84,6.08,6.76,7.47,0,0,0,0,0,0,140,0.269,8.29,0.02,0.02,20,105,9,80,Indigo,20,11,19.0345,0,0,3.0606,9,2,10,466.36,12.615,33.7253
LTH,300,3.03,39.85,39.84,6.08,6.76,7.47,0,0,0,0,0,0,140,0.269,8.29,0.02,0.02,20,105,9,100,Indigo,20,11,19.0345,0,0,3.0606,9,2,10,466.36,12.7463,33.0355
LTH,300,3.03,39.85,39.84,6.08,6.76,7.47,0,0,0,0,0,0,140,0.269,8.29,0.02,0.02,20,105,9,120,Indigo,20,11,19.0345,0,0,3.0606,9,2,10,466.36,11.747,38.2857
LTH,300,3.03,39.85,39.84,6.08,6.76,7.47,0,0,0,0,0,0,140,0.269,8.29,0.02,0.02,20,105,9,120,Indigo,20,11,19.0345,0,0,3.0606,9,2,10,466.36,11.1921,41.2009
LTH,300,3.03,39.85,39.84,6.08,6.76,7.47,0,0,0,0,0,0,140,0.269,8.29,0.02,0.02,20,105,9,150,Indigo,20,11,19.0345,0,0,3.0606,9,2,10,466.36,11.3944,40.1383
LTH,300,3.03,39.85,39.84,6.08,6.76,7.47,0,0,0,0,0,0,140,0.269,8.29,0.02,0.02,20,105,9,180,Indigo,20,11,19.0345,0,0,3.0606,9,2,10,466.36,11.4152,40.029
LTH,300,3.03,39.85,39.84,6.08,6.76,7.47,0,0,0,0,0,0,140,0.269,8.29,0.02,0.02,20,105,9,180,Indigo,20,11,19.0345,0,0,3.0606,9,2,10,466.36,11.8497,37.7459
LTH,300,3.03,39.85,39.84,6.08,6.76,7.47,0,0,0,0,0,0,140,0.269,8.29,0.02,0.02,20,105,9,210,Indigo,20,11,19.0345,0,0,3.0606,9,2,10,466.36,12.1045,36.4075
LM1,1320,4.61,11.16,51.39,9.1,13.68,10.85,1.13,2.69,0,0,0,0,77,0.1496,7.71,0.02,0.02,20,105,9,150,Indigo,20,5,19.0345,0,0,3.0606,9,2,10,466.36,7.27693,61.7697
LM1,1320,4.61,11.16,51.39,9.1,13.68,10.85,1.13,2.69,0,0,0,0,77,0.1496,7.71,0.02,0.02,20,105,9,150,Indigo,20,5,19.0345,0,0,3.0606,9,2,10,466.36,7.02636,63.0862
LM1,1320,4.61,11.16,51.39,9.1,13.68,10.85,1.13,2.69,0,0,0,0,77,0.1496,7.71,0.02,0.02,20,105,9,150,Indigo,20,7,19.0345,0,0,3.0606,9,2,10,466.36,5.413,71.5621
LM1,1320,4.61,11.16,51.39,9.1,13.68,10.85,1.13,2.69,0,0,0,0,77,0.1496,7.71,0.02,0.02,20,105,9,150,Indigo,20,9,19.0345,0,0,3.0606,9,2,10,466.36,2.65873,86.032
LM1,1320,4.61,11.16,51.39,9.1,13.68,10.85,1.13,2.69,0,0,0,0,77,0.1496,7.71,0.02,0.02,20,105,9,150,Indigo,20,9,19.0345,0,0,3.0606,9,2,10,466.36,2.75551,85.5236
LM1,1320,4.61,11.16,51.39,9.1,13.68,10.85,1.13,2.69,0,0,0,0,77,0.1496,7.71,0.02,0.02,20,105,9,150,Indigo,20,11,19.0345,0,0,3.0606,9,2,10,466.36,0.906791,95.2361
LM1,1320,4.61,11.16,51.39,9.1,13.68,10.85,1.13,2.69,0,0,0,0,77,0.1496,7.71,0.02,0.02,20,105,9,30,Indigo,20,11,19.0345,0,0,3.0606,9,2,10,466.36,11.4479,39.8571
LM1,1320,4.61,11.16,51.39,9.1,13.68,10.85,1.13,2.69,0,0,0,0,77,0.1496,7.71,0.02,0.02,20,105,9,30,Indigo,20,11,19.0345,0,0,3.0606,9,2,10,466.36,10.9532,42.4559
LM1,1320,4.61,11.16,51.39,9.1,13.68,10.85,1.13,2.69,0,0,0,0,77,0.1496,7.71,0.02,0.02,20,105,9,40,Indigo,20,11,19.0345,0,0,3.0606,9,2,10,466.36,11.4608,39.7892
LM1,1320,4.61,11.16,51.39,9.1,13.68,10.85,1.13,2.69,0,0,0,0,77,0.1496,7.71,0.02,0.02,20,105,9,50,Indigo,20,11,19.0345,0,0,3.0606,9,2,10,466.36,9.78916,48.5714
LM1,1320,4.61,11.16,51.39,9.1,13.68,10.85,1.13,2.69,0,0,0,0,77,0.1496,7.71,0.02,0.02,20,105,9,50,Indigo,20,11,19.0345,0,0,3.0606,9,2,10,466.36,9.5737,49.7034
LM1,1320,4.61,11.16,51.39,9.1,13.68,10.85,1.13,2.69,0,0,0,0,77,0.1496,7.71,0.02,0.02,20,105,9,60,Indigo,20,11,19.0345,0,0,3.0606,9,2,10,466.36,5.0863,73.2785
LM1,1320,4.61,11.16,51.39,9.1,13.68,10.85,1.13,2.69,0,0,0,0,77,0.1496,7.71,0.02,0.02,20,105,9,80,Indigo,20,11,19.0345,0,0,3.0606,9,2,10,466.36,3.32832,82.5143
LM1,1320,4.61,11.16,51.39,9.1,13.68,10.85,1.13,2.69,0,0,0,0,77,0.1496,7.71,0.02,0.02,20,105,9,80,Indigo,20,11,19.0345,0,0,3.0606,9,2,10,466.36,3.2233,83.066
LM1,1320,4.61,11.16,51.39,9.1,13.68,10.85,1.13,2.69,0,0,0,0,77,0.1496,7.71,0.02,0.02,20,105,9,100,Indigo,20,11,19.0345,0,0,3.0606,9,2,10,466.36,1.59917,91.5986
LM1,1320,4.61,11.16,51.39,9.1,13.68,10.85,1.13,2.69,0,0,0,0,77,0.1496,7.71,0.02,0.02,20,105,9,120,Indigo,20,11,19.0345,0,0,3.0606,9,2,10,466.36,0.761379,96
LM1,1320,4.61,11.16,51.39,9.1,13.68,10.85,1.13,2.69,0,0,0,0,77,0.1496,7.71,0.02,0.02,20,105,9,120,Indigo,20,11,19.0345,0,0,3.0606,9,2,10,466.36,0.689655,96.3768
LM1,1320,4.61,11.16,51.39,9.1,13.68,10.85,1.13,2.69,0,0,0,0,77,0.1496,7.71,0.02,0.02,20,105,9,150,Indigo,20,11,19.0345,0,0,3.0606,9,2,10,466.36,0.279415,98.5321
LM1,1320,4.61,11.16,51.39,9.1,13.68,10.85,1.13,2.69,0,0,0,0,77,0.1496,7.71,0.02,0.02,20,105,9,180,Indigo,20,11,19.0345,0,0,3.0606,9,2,10,466.36,0.02382266,99.8748
LM1,1320,4.61,11.16,51.39,9.1,13.68,10.85,1.13,2.69,0,0,0,0,77,0.1496,7.71,0.02,0.02,20,105,9,180,Indigo,20,11,19.0345,0,0,3.0606,9,2,10,466.36,0.0495297,99.7398
LM1,1320,4.61,11.16,51.39,9.1,13.68,10.85,1.13,2.69,0,0,0,0,77,0.1496,7.71,0.02,0.02,20,105,9,210,Indigo,20,11,19.0345,0,0,3.0606,9,2,10,466.36,0.0151034,99.9207
LM1,1320,4.61,11.16,51.39,9.1,13.68,10.85,1.13,2.69,0,0,0,0,77,0.1496,7.71,0.02,0.02,20,35,9,210,Indigo,20,11,19.0345,0,0,3.0606,9,2,10,466.36,3.91455,79.4344
LM1,1320,4.61,11.16,51.39,9.1,13.68,10.85,1.13,2.69,0,0,0,0,77,0.1496,7.71,0.02,0.02,20,35,9,210,Indigo,20,11,19.0345,0,0,3.0606,9,2,10,466.36,3.34592,82.4218
LM1,1320,4.61,11.16,51.39,9.1,13.68,10.85,1.13,2.69,0,0,0,0,77,0.1496,7.71,0.02,0.02,20,70,9,210,Indigo,20,11,19.0345,0,0,3.0606,9,2,10,466.36,2.79415,85.3206
LM1,1320,4.61,11.16,51.39,9.1,13.68,10.85,1.13,2.69,0,0,0,0,77,0.1496,7.71,0.02,0.02,20,105,9,210,Indigo,20,11,19.0345,0,0,3.0606,9,2,10,466.36,0.0910345,99.5217
LM1,1320,4.61,11.16,51.39,9.1,13.68,10.85,1.13,2.69,0,0,0,0,77,0.1496,7.71,0.02,0.02,20,105,9,210,Indigo,20,11,19.0345,0,0,3.0606,9,2,10,466.36,0.0495172,99.7399
LM1,1320,4.61,11.16,51.39,9.1,13.68,10.85,1.13,2.69,0,0,0,0,77,0.1496,7.71,0.02,0.02,20,105,9,210,Indigo,20,11,19.0345,0,0,3.0606,9,2,10,466.36,0.19459,98.9777
LM1,1320,4.61,11.16,51.39,9.1,13.68,10.85,1.13,2.69,0,0,0,0,77,0.1496,7.71,0.02,0.02,20,105,16,210,Indigo,20,11,19.0345,0,0,3.0606,9,2,10,466.36,0.157576,99.1722
LM1,1320,4.61,11.16,51.39,9.1,13.68,10.85,1.13,2.69,0,0,0,0,77,0.1496,7.71,0.02,0.02,20,105,16,210,Indigo,20,11,19.0345,0,0,3.0606,9,2,10,466.36,0.105392,99.4463
LM1,1320,4.61,11.16,51.39,9.1,13.68,10.85,1.13,2.69,0,0,0,0,77,0.1496,7.71,0.02,0.02,20,105,23,210,Indigo,20,11,19.0345,0,0,3.0606,9,2,10,466.36,0.815806,95.7141
LM1,1320,4.61,11.16,51.39,9.1,13.68,10.85,1.13,2.69,0,0,0,0,77,0.1496,7.71,0.02,0.01,5,105,9,210,Indigo,20,11,19.0345,0,0,3.0606,9,2,10,466.36,4.75862,75
LM1,1320,4.61,11.16,51.39,9.1,13.68,10.85,1.13,2.69,0,0,0,0,77,0.1496,7.71,0.02,0.01,5,105,9,210,Indigo,20,11,19.0345,0,0,3.0606,9,2,10,466.36,4.95297,73.979
LM1,1320,4.61,11.16,51.39,9.1,13.68,10.85,1.13,2.69,0,0,0,0,77,0.1496,7.71,0.02,0.01,10,105,9,210,Indigo,20,11,19.0345,0,0,3.0606,9,2,10,466.36,4.31139,77.3496
LM1,1320,4.61,11.16,51.39,9.1,13.68,10.85,1.13,2.69,0,0,0,0,77,0.1496,7.71,0.02,0.02,15,105,9,210,Indigo,20,11,19.0345,0,0,3.0606,9,2,10,466.36,1.52276,92
LM1,1320,4.61,11.16,51.39,9.1,13.68,10.85,1.13,2.69,0,0,0,0,77,0.1496,7.71,0.02,0.02,15,105,9,210,Indigo,20,11,19.0345,0,0,3.0606,9,2,10,466.36,1.05284,94.4688
LM1,1320,4.61,11.16,51.39,9.1,13.68,10.85,1.13,2.69,0,0,0,0,77,0.1496,7.71,0.02,0.02,20,105,9,210,Indigo,20,11,19.0345,0,0,3.0606,9,2,10,466.36,0.104492,99.451
LM1,1320,4.61,11.16,51.39,9.1,13.68,10.85,1.13,2.69,0,0,0,0,77,0.1496,7.71,0.02,0.03,30,105,9,210,Indigo,20,11,19.0345,0,0,3.0606,9,2,10,466.36,0.190345,99
LM1,1320,4.61,11.16,51.39,9.1,13.68,10.85,1.13,2.69,0,0,0,0,77,0.1496,7.71,0.02,0.03,30,105,9,210,Indigo,20,11,19.0345,0,0,3.0606,9,2,10,466.36,0.160354,99.1576
LM1,1320,4.61,11.16,51.39,9.1,13.68,10.85,1.13,2.69,0,0,0,0,77,0.1496,7.71,0.02,0.04,40,105,9,210,Indigo,20,11,19.0345,0,0,3.0606,9,2,10,466.36,0.173333,99.0894
LM1,1320,4.61,11.16,51.39,9.1,13.68,10.85,1.13,2.69,0,0,0,0,77,0.1496,7.71,0.02,0.05,50,105,9,210,Indigo,20,11,19.0345,0,0,3.0606,9,2,10,466.36,0.226584,98.8096
LM1,1320,4.61,11.16,51.39,9.1,13.68,10.85,1.13,2.69,0,0,0,0,77,0.1496,7.71,0.02,0.05,50,105,9,210,Indigo,20,11,19.0345,0,0,3.0606,9,2,10,466.36,0.19646,98.9679
LM1,1320,4.61,11.16,51.39,9.1,13.68,10.85,1.13,2.69,0,0,0,0,77,0.1496,7.71,0.02,0.02,20,105,9,150,Indigo,10,11,19.0345,0,0,3.0606,9,2,10,466.36,0.173793,99.087
LM1,1320,4.61,11.16,51.39,9.1,13.68,10.85,1.13,2.69,0,0,0,0,77,0.1496,7.71,0.02,0.02,20,105,9,150,Indigo,20,11,19.0345,0,0,3.0606,9,2,10,466.36,0.175761,99.0766
LM1,1320,4.61,11.16,51.39,9.1,13.68,10.85,1.13,2.69,0,0,0,0,77,0.1496,7.71,0.02,0.02,20,105,9,150,Indigo,20,11,19.0345,0,0,3.0606,9,2,10,466.36,0.194253,98.9795
LM1,1320,4.61,11.16,51.39,9.1,13.68,10.85,1.13,2.69,0,0,0,0,77,0.1496,7.71,0.02,0.02,20,105,9,150,Indigo,30,11,19.0345,0,0,3.0606,9,2,10,466.36,0.796713,95.8144
LM1,1320,4.61,11.16,51.39,9.1,13.68,10.85,1.13,2.69,0,0,0,0,77,0.1496,7.71,0.02,0.02,20,105,9,150,Indigo,40,11,19.0345,0,0,3.0606,9,2,10,466.36,2.86107,84.969
LM1,1320,4.61,11.16,51.39,9.1,13.68,10.85,1.13,2.69,0,0,0,0,77,0.1496,7.71,0.02,0.02,20,105,9,150,Indigo,40,11,19.0345,0,0,3.0606,9,2,10,466.36,2.58391,86.4251
LM1,1320,4.61,11.16,51.39,9.1,13.68,10.85,1.13,2.69,0,0,0,0,77,0.1496,7.71,0.02,0.02,20,105,9,150,Indigo,50,11,19.0345,0,0,3.0606,9,2,10,466.36,6.15757,67.6504
LM1,1320,4.61,11.16,51.39,9.1,13.68,10.85,1.13,2.69,0,0,0,0,77,0.1496,7.71,0.02,0.02,20,105,9,150,Indigo,60,11,19.0345,0,0,3.0606,9,2,10,466.36,10.2787,45.9994
LM1,1320,4.61,11.16,51.39,9.1,13.68,10.85,1.13,2.69,0,0,0,0,77,0.1496,7.71,0.02,0.02,20,105,9,150,Indigo,60,11,19.0345,0,0,3.0606,9,2,10,466.36,10.6792,43.8955
LM1,1320,4.61,11.16,51.39,9.1,13.68,10.85,1.13,2.69,0,0,0,0,77,0.1496,7.71,0.02,0.02,20,105,9,150,Indigo,80,11,19.0345,0,0,3.0606,9,2,10,466.36,12.5391,34.1242
LM1,1320,4.61,11.16,51.39,9.1,13.68,10.85,1.13,2.69,0,0,0,0,77,0.1496,7.71,0.02,0.02,20,105,9,150,Indigo,100,11,19.0345,0,0,3.0606,9,2,10,466.36,14.2864,24.9448
LM1,1320,4.61,11.16,51.39,9.1,13.68,10.85,1.13,2.69,0,0,0,0,77,0.1496,7.71,0.02,0.02,20,105,9,150,Indigo,100,11,19.0345,0,0,3.0606,9,2,10,466.36,14.5872,23.3641
LM1.5,1320,2.74,18.63,40.11,9.95,10.67,12.95,1.79,5.9,0,0,0,0,92.21,0.175,7.6,0.02,0.02,20,105,9,150,Indigo,20,5,19.0345,0,0,3.0606,9,2,10,466.36,11.0242,42.0829
LM1.5,1320,2.74,18.63,40.11,9.95,10.67,12.95,1.79,5.9,0,0,0,0,92.21,0.175,7.6,0.02,0.02,20,105,9,150,Indigo,20,7,19.0345,0,0,3.0606,9,2,10,466.36,9.96646,47.64
LM1.5,1320,2.74,18.63,40.11,9.95,10.67,12.95,1.79,5.9,0,0,0,0,92.21,0.175,7.6,0.02,0.02,20,105,9,150,Indigo,20,7,19.0345,0,0,3.0606,9,2,10,466.36,10.2447,46.178
LM1.5,1320,2.74,18.63,40.11,9.95,10.67,12.95,1.79,5.9,0,0,0,0,92.21,0.175,7.6,0.02,0.02,20,105,9,150,Indigo,20,9,19.0345,0,0,3.0606,9,2,10,466.36,8.70009,54.293
LM1.5,1320,2.74,18.63,40.11,9.95,10.67,12.95,1.79,5.9,0,0,0,0,92.21,0.175,7.6,0.02,0.02,20,105,9,150,Indigo,20,11,19.0345,0,0,3.0606,9,2,10,466.36,7.13885,62.4952
LM1.5,1320,2.74,18.63,40.11,9.95,10.67,12.95,1.79,5.9,0,0,0,0,92.21,0.175,7.6,0.02,0.02,20,105,9,150,Indigo,20,11,19.0345,0,0,3.0606,9,2,10,466.36,7.71159,59.4862
LM1.5,1320,2.74,18.63,40.11,9.95,10.67,12.95,1.79,5.9,0,0,0,0,92.21,0.175,7.6,0.02,0.02,20,105,9,30,Indigo,20,11,19.0345,0,0,3.0606,9,2,10,466.36,9.76216,48.7133
LM1.5,1320,2.74,18.63,40.11,9.95,10.67,12.95,1.79,5.9,0,0,0,0,92.21,0.175,7.6,0.02,0.02,20,105,9,40,Indigo,20,11,19.0345,0,0,3.0606,9,2,10,466.36,8.94621,53
LM1.5,1320,2.74,18.63,40.11,9.95,10.67,12.95,1.79,5.9,0,0,0,0,92.21,0.175,7.6,0.02,0.02,20,105,9,40,Indigo,20,11,19.0345,0,0,3.0606,9,2,10,466.36,8.70035,54.2916
LM1.5,1320,2.74,18.63,40.11,9.95,10.67,12.95,1.79,5.9,0,0,0,0,92.21,0.175,7.6,0.02,0.02,20,105,9,50,Indigo,20,11,19.0345,0,0,3.0606,9,2,10,466.36,7.93598,58.3074
LM1.5,1320,2.74,18.63,40.11,9.95,10.67,12.95,1.79,5.9,0,0,0,0,92.21,0.175,7.6,0.02,0.02,20,105,9,60,Indigo,20,11,19.0345,0,0,3.0606,9,2,10,466.36,6.98837,63.2857
LM1.5,1320,2.74,18.63,40.11,9.95,10.67,12.95,1.79,5.9,0,0,0,0,92.21,0.175,7.6,0.02,0.02,20,105,9,60,Indigo,20,11,19.0345,0,0,3.0606,9,2,10,466.36,6.84262,64.0514
LM1.5,1320,2.74,18.63,40.11,9.95,10.67,12.95,1.79,5.9,0,0,0,0,92.21,0.175,7.6,0.02,0.02,20,105,9,80,Indigo,20,11,19.0345,0,0,3.0606,9,2,10,466.36,6.33233,66.7323
LM1.5,1320,2.74,18.63,40.11,9.95,10.67,12.95,1.79,5.9,0,0,0,0,92.21,0.175,7.6,0.02,0.02,20,105,9,100,Indigo,20,11,19.0345,0,0,3.0606,9,2,10,466.36,5.66193,70.2544
LM1.5,1320,2.74,18.63,40.11,9.95,10.67,12.95,1.79,5.9,0,0,0,0,92.21,0.175,7.6,0.02,0.02,20,105,9,100,Indigo,20,11,19.0345,0,0,3.0606,9,2,10,466.36,6.3331,66.7283
LM1.5,1320,2.74,18.63,40.11,9.95,10.67,12.95,1.79,5.9,0,0,0,0,92.21,0.175,7.6,0.02,0.02,20,105,9,120,Indigo,20,11,19.0345,0,0,3.0606,9,2,10,466.36,4.85438,74.4969
LM1.5,1320,2.74,18.63,40.11,9.95,10.67,12.95,1.79,5.9,0,0,0,0,92.21,0.175,7.6,0.02,0.02,20,105,9,150,Indigo,20,11,19.0345,0,0,3.0606,9,2,10,466.36,3.26305,82.8571
LM1.5,1320,2.74,18.63,40.11,9.95,10.67,12.95,1.79,5.9,0,0,0,0,92.21,0.175,7.6,0.02,0.02,20,105,9,150,Indigo,20,11,19.0345,0,0,3.0606,9,2,10,466.36,3.13918,83.5079
LM1.5,1320,2.74,18.63,40.11,9.95,10.67,12.95,1.79,5.9,0,0,0,0,92.21,0.175,7.6,0.02,0.02,20,105,9,180,Indigo,20,11,19.0345,0,0,3.0606,9,2,10,466.36,2.41713,87.3013
LM1.5,1320,2.74,18.63,40.11,9.95,10.67,12.95,1.79,5.9,0,0,0,0,92.21,0.175,7.6,0.02,0.02,20,105,9,210,Indigo,20,11,19.0345,0,0,3.0606,9,2,10,466.36,1.44799,92.3928
LM1.5,1320,2.74,18.63,40.11,9.95,10.67,12.95,1.79,5.9,0,0,0,0,92.21,0.175,7.6,0.02,0.02,20,105,9,210,Indigo,20,11,19.0345,0,0,3.0606,9,2,10,466.36,1.04569,94.5063
LM1.5,1320,2.74,18.63,40.11,9.95,10.67,12.95,1.79,5.9,0,0,0,0,92.21,0.175,7.6,0.02,0.02,20,35,9,210,Indigo,20,11,19.0345,0,0,3.0606,9,2,10,466.36,5.63494,70.3961
LM1.5,1320,2.74,18.63,40.11,9.95,10.67,12.95,1.79,5.9,0,0,0,0,92.21,0.175,7.6,0.02,0.02,20,70,9,210,Indigo,20,11,19.0345,0,0,3.0606,9,2,10,466.36,3.99739,78.9992
LM1.5,1320,2.74,18.63,40.11,9.95,10.67,12.95,1.79,5.9,0,0,0,0,92.21,0.175,7.6,0.02,0.02,20,70,9,210,Indigo,20,11,19.0345,0,0,3.0606,9,2,10,466.36,3.55093,81.3448
LM1.5,1320,2.74,18.63,40.11,9.95,10.67,12.95,1.79,5.9,0,0,0,0,92.21,0.175,7.6,0.02,0.02,20,105,9,210,Indigo,20,11,19.0345,0,0,3.0606,9,2,10,466.36,1.37103,92.7971
LM1.5,1320,2.74,18.63,40.11,9.95,10.67,12.95,1.79,5.9,0,0,0,0,92.21,0.175,7.6,0.02,0.02,20,105,9,210,Indigo,20,11,19.0345,0,0,3.0606,9,2,10,466.36,1.52276,92
LM1.5,1320,2.74,18.63,40.11,9.95,10.67,12.95,1.79,5.9,0,0,0,0,92.21,0.175,7.6,0.02,0.02,20,105,9,210,Indigo,20,11,19.0345,0,0,3.0606,9,2,10,466.36,0.819425,95.695
LM1.5,1320,2.74,18.63,40.11,9.95,10.67,12.95,1.79,5.9,0,0,0,0,92.21,0.175,7.6,0.02,0.02,20,105,16,210,Indigo,20,11,19.0345,0,0,3.0606,9,2,10,466.36,1.94575,89.7778
LM1.5,1320,2.74,18.63,40.11,9.95,10.67,12.95,1.79,5.9,0,0,0,0,92.21,0.175,7.6,0.02,0.02,20,105,23,210,Indigo,20,11,19.0345,0,0,3.0606,9,2,10,466.36,1.99862,89.5
LM1.5,1320,2.74,18.63,40.11,9.95,10.67,12.95,1.79,5.9,0,0,0,0,92.21,0.175,7.6,0.02,0.02,20,105,23,210,Indigo,20,11,19.0345,0,0,3.0606,9,2,10,466.36,1.70469,91.0442
LM1.5,1320,2.74,18.63,40.11,9.95,10.67,12.95,1.79,5.9,0,0,0,0,92.21,0.175,7.6,0.02,0.01,5,105,9,150,Indigo,20,11,19.0345,0,0,3.0606,9,2,10,466.36,5.85411,69.2447
LM1.5,1320,2.74,18.63,40.11,9.95,10.67,12.95,1.79,5.9,0,0,0,0,92.21,0.175,7.6,0.02,0.01,10,105,9,150,Indigo,20,11,19.0345,0,0,3.0606,9,2,10,466.36,4.94897,74
LM1.5,1320,2.74,18.63,40.11,9.95,10.67,12.95,1.79,5.9,0,0,0,0,92.21,0.175,7.6,0.02,0.01,10,105,9,150,Indigo,20,11,19.0345,0,0,3.0606,9,2,10,466.36,5.18333,72.7687
LM1.5,1320,2.74,18.63,40.11,9.95,10.67,12.95,1.79,5.9,0,0,0,0,92.21,0.175,7.6,0.02,0.02,15,105,9,150,Indigo,20,11,19.0345,0,0,3.0606,9,2,10,466.36,3.55172,81.3406
LM1.5,1320,2.74,18.63,40.11,9.95,10.67,12.95,1.79,5.9,0,0,0,0,92.21,0.175,7.6,0.02,0.02,20,105,9,150,Indigo,20,11,19.0345,0,0,3.0606,9,2,10,466.36,1.52276,92
LM1.5,1320,2.74,18.63,40.11,9.95,10.67,12.95,1.79,5.9,0,0,0,0,92.21,0.175,7.6,0.02,0.02,20,105,9,150,Indigo,20,11,19.0345,0,0,3.0606,9,2,10,466.36,1.29793,93.1812
LM1.5,1320,2.74,18.63,40.11,9.95,10.67,12.95,1.79,5.9,0,0,0,0,92.21,0.175,7.6,0.02,0.03,30,105,9,150,Indigo,20,11,19.0345,0,0,3.0606,9,2,10,466.36,0.175969,99.0755
LM1.5,1320,2.74,18.63,40.11,9.95,10.67,12.95,1.79,5.9,0,0,0,0,92.21,0.175,7.6,0.02,0.04,40,105,9,150,Indigo,20,11,19.0345,0,0,3.0606,9,2,10,466.36,0.1944,98.9787
LM1.5,1320,2.74,18.63,40.11,9.95,10.67,12.95,1.79,5.9,0,0,0,0,92.21,0.175,7.6,0.02,0.04,40,105,9,150,Indigo,20,11,19.0345,0,0,3.0606,9,2,10,466.36,0.15507,99.1853
LM1.5,1320,2.74,18.63,40.11,9.95,10.67,12.95,1.79,5.9,0,0,0,0,92.21,0.175,7.6,0.02,0.05,50,105,9,150,Indigo,20,11,19.0345,0,0,3.0606,9,2,10,466.36,0.206299,98.9162
LM1.5,1320,2.74,18.63,40.11,9.95,10.67,12.95,1.79,5.9,0,0,0,0,92.21,0.175,7.6,0.02,0.02,20,105,9,150,Indigo,10,11,19.0345,0,0,3.0606,9,2,10,466.36,0.19669,98.9667
LM1.5,1320,2.74,18.63,40.11,9.95,10.67,12.95,1.79,5.9,0,0,0,0,92.21,0.175,7.6,0.02,0.02,20,105,9,150,Indigo,10,11,19.0345,0,0,3.0606,9,2,10,466.36,0.12463,99.3452
LM1.5,1320,2.74,18.63,40.11,9.95,10.67,12.95,1.79,5.9,0,0,0,0,92.21,0.175,7.6,0.02,0.02,20,105,9,150,Indigo,20,11,19.0345,0,0,3.0606,9,2,10,466.36,1.73333,90.8937
LM1.5,1320,2.74,18.63,40.11,9.95,10.67,12.95,1.79,5.9,0,0,0,0,92.21,0.175,7.6,0.02,0.02,20,105,9,150,Indigo,30,11,19.0345,0,0,3.0606,9,2,10,466.36,2.85517,85
LM1.5,1320,2.74,18.63,40.11,9.95,10.67,12.95,1.79,5.9,0,0,0,0,92.21,0.175,7.6,0.02,0.02,20,105,9,150,Indigo,30,11,19.0345,0,0,3.0606,9,2,10,466.36,3.10345,83.6957
LM1.5,1320,2.74,18.63,40.11,9.95,10.67,12.95,1.79,5.9,0,0,0,0,92.21,0.175,7.6,0.02,0.02,20,105,9,150,Indigo,40,11,19.0345,0,0,3.0606,9,2,10,466.36,4.3577,77.1063
LM1.5,1320,2.74,18.63,40.11,9.95,10.67,12.95,1.79,5.9,0,0,0,0,92.21,0.175,7.6,0.02,0.02,20,105,9,150,Indigo,50,11,19.0345,0,0,3.0606,9,2,10,466.36,8.18483,57
LM1.5,1320,2.74,18.63,40.11,9.95,10.67,12.95,1.79,5.9,0,0,0,0,92.21,0.175,7.6,0.02,0.02,20,105,9,150,Indigo,50,11,19.0345,0,0,3.0606,9,2,10,466.36,7.71149,59.4867
LM1.5,1320,2.74,18.63,40.11,9.95,10.67,12.95,1.79,5.9,0,0,0,0,92.21,0.175,7.6,0.02,0.02,20,105,9,150,Indigo,60,11,19.0345,0,0,3.0606,9,2,10,466.36,11.7806,38.1094
LM1.5,1320,2.74,18.63,40.11,9.95,10.67,12.95,1.79,5.9,0,0,0,0,92.21,0.175,7.6,0.02,0.02,20,105,9,150,Indigo,80,11,19.0345,0,0,3.0606,9,2,10,466.36,12.2909,35.4281
LM1.5,1320,2.74,18.63,40.11,9.95,10.67,12.95,1.79,5.9,0,0,0,0,92.21,0.175,7.6,0.02,0.02,20,105,9,150,Indigo,80,11,19.0345,0,0,3.0606,9,2,10,466.36,12.5894,33.8599
LM1.5,1320,2.74,18.63,40.11,9.95,10.67,12.95,1.79,5.9,0,0,0,0,92.21,0.175,7.6,0.02,0.02,20,105,9,150,Indigo,100,11,19.0345,0,0,3.0606,9,2,10,466.36,15.8078,16.9517
LM2,1320,2.66,14.52,33,9.03,10.08,13.13,3,17.24,0,0,0,0,19.54,0.0956,18.98,0.02,0.02,20,105,9,150,Indigo,20,5,19.0345,0,0,3.0606,9,2,10,466.36,10.3448,45.6522
LM2,1320,2.66,14.52,33,9.03,10.08,13.13,3,17.24,0,0,0,0,19.54,0.0956,18.98,0.02,0.02,20,105,9,150,Indigo,20,5,19.0345,0,0,3.0606,9,2,10,466.36,10.2653,46.07
LM2,1320,2.66,14.52,33,9.03,10.08,13.13,3,17.24,0,0,0,0,19.54,0.0956,18.98,0.02,0.02,20,105,9,150,Indigo,20,7,19.0345,0,0,3.0606,9,2,10,466.36,8.96263,52.9137
LM2,1320,2.66,14.52,33,9.03,10.08,13.13,3,17.24,0,0,0,0,19.54,0.0956,18.98,0.02,0.02,20,105,9,150,Indigo,20,9,19.0345,0,0,3.0606,9,2,10,466.36,7.1389,62.4949
LM2,1320,2.66,14.52,33,9.03,10.08,13.13,3,17.24,0,0,0,0,19.54,0.0956,18.98,0.02,0.02,20,105,9,150,Indigo,20,9,19.0345,0,0,3.0606,9,2,10,466.36,7.48161,60.6944
LM2,1320,2.66,14.52,33,9.03,10.08,13.13,3,17.24,0,0,0,0,19.54,0.0956,18.98,0.02,0.02,20,105,9,150,Indigo,20,11,19.0345,0,0,3.0606,9,2,10,466.36,5.09551,73.2301
LM2,1320,2.66,14.52,33,9.03,10.08,13.13,3,17.24,0,0,0,0,19.54,0.0956,18.98,0.02,0.02,20,105,9,30,Indigo,20,11,19.0345,0,0,3.0606,9,2,10,466.36,9.32702,50.9993
LM2,1320,2.66,14.52,33,9.03,10.08,13.13,3,17.24,0,0,0,0,19.54,0.0956,18.98,0.02,0.02,20,105,9,30,Indigo,20,11,19.0345,0,0,3.0606,9,2,10,466.36,9.9908,47.5121
LM2,1320,2.66,14.52,33,9.03,10.08,13.13,3,17.24,0,0,0,0,19.54,0.0956,18.98,0.02,0.02,20,105,9,40,Indigo,20,11,19.0345,0,0,3.0606,9,2,10,466.36,8.63046,54.6588
LM2,1320,2.66,14.52,33,9.03,10.08,13.13,3,17.24,0,0,0,0,19.54,0.0956,18.98,0.02,0.02,20,105,9,50,Indigo,20,11,19.0345,0,0,3.0606,9,2,10,466.36,8.45675,55.5714
LM2,1320,2.66,14.52,33,9.03,10.08,13.13,3,17.24,0,0,0,0,19.54,0.0956,18.98,0.02,0.02,20,105,9,50,Indigo,20,11,19.0345,0,0,3.0606,9,2,10,466.36,8.63108,54.6556
LM2,1320,2.66,14.52,33,9.03,10.08,13.13,3,17.24,0,0,0,0,19.54,0.0956,18.98,0.02,0.02,20,105,9,60,Indigo,20,11,19.0345,0,0,3.0606,9,2,10,466.36,7.39172,61.1667
LM2,1320,2.66,14.52,33,9.03,10.08,13.13,3,17.24,0,0,0,0,19.54,0.0956,18.98,0.02,0.02,20,105,9,80,Indigo,20,11,19.0345,0,0,3.0606,9,2,10,466.36,6.82522,64.1429
LM2,1320,2.66,14.52,33,9.03,10.08,13.13,3,17.24,0,0,0,0,19.54,0.0956,18.98,0.02,0.02,20,105,9,80,Indigo,20,11,19.0345,0,0,3.0606,9,2,10,466.36,6.33175,66.7354
LM2,1320,2.66,14.52,33,9.03,10.08,13.13,3,17.24,0,0,0,0,19.54,0.0956,18.98,0.02,0.02,20,105,9,100,Indigo,20,11,19.0345,0,0,3.0606,9,2,10,466.36,6.17346,67.567
LM2,1320,2.66,14.52,33,9.03,10.08,13.13,3,17.24,0,0,0,0,19.54,0.0956,18.98,0.02,0.02,20,105,9,120,Indigo,20,11,19.0345,0,0,3.0606,9,2,10,466.36,5.35685,71.8571
LM2,1320,2.66,14.52,33,9.03,10.08,13.13,3,17.24,0,0,0,0,19.54,0.0956,18.98,0.02,0.02,20,105,9,120,Indigo,20,11,19.0345,0,0,3.0606,9,2,10,466.36,5.84262,69.3051
LM2,1320,2.66,14.52,33,9.03,10.08,13.13,3,17.24,0,0,0,0,19.54,0.0956,18.98,0.02,0.02,20,105,9,150,Indigo,20,11,19.0345,0,0,3.0606,9,2,10,466.36,4.88598,74.3309
LM2,1320,2.66,14.52,33,9.03,10.08,13.13,3,17.24,0,0,0,0,19.54,0.0956,18.98,0.02,0.02,20,105,9,180,Indigo,20,11,19.0345,0,0,3.0606,9,2,10,466.36,3.33544,82.4769
LM2,1320,2.66,14.52,33,9.03,10.08,13.13,3,17.24,0,0,0,0,19.54,0.0956,18.98,0.02,0.02,20,105,9,180,Indigo,20,11,19.0345,0,0,3.0606,9,2,10,466.36,3.44794,81.8858
LM2,1320,2.66,14.52,33,9.03,10.08,13.13,3,17.24,0,0,0,0,19.54,0.0956,18.98,0.02,0.02,20,105,9,210,Indigo,20,11,19.0345,0,0,3.0606,9,2,10,466.36,2.78745,85.3558
LM2,1320,2.66,14.52,33,9.03,10.08,13.13,3,17.24,0,0,0,0,19.54,0.0956,18.98,0.02,0.02,20,35,9,210,Indigo,20,11,19.0345,0,0,3.0606,9,2,10,466.36,6.28138,67
LM2,1320,2.66,14.52,33,9.03,10.08,13.13,3,17.24,0,0,0,0,19.54,0.0956,18.98,0.02,0.02,20,35,9,210,Indigo,20,11,19.0345,0,0,3.0606,9,2,10,466.36,6.084,68.037
LM2,1320,2.66,14.52,33,9.03,10.08,13.13,3,17.24,0,0,0,0,19.54,0.0956,18.98,0.02,0.02,20,70,9,210,Indigo,20,11,19.0345,0,0,3.0606,9,2,10,466.36,5.1831,72.7699
LM2,1320,2.66,14.52,33,9.03,10.08,13.13,3,17.24,0,0,0,0,19.54,0.0956,18.98,0.02,0.02,20,105,9,210,Indigo,20,11,19.0345,0,0,3.0606,9,2,10,466.36,2.47448,87
LM2,1320,2.66,14.52,33,9.03,10.08,13.13,3,17.24,0,0,0,0,19.54,0.0956,18.98,0.02,0.02,20,105,9,210,Indigo,20,11,19.0345,0,0,3.0606,9,2,10,466.36,2.88276,84.8551
LM2,1320,2.66,14.52,33,9.03,10.08,13.13,3,17.24,0,0,0,0,19.54,0.0956,18.98,0.02,0.02,20,105,9,210,Indigo,20,11,19.0345,0,0,3.0606,9,2,10,466.36,2.49517,86.8913
LM2,1320,2.66,14.52,33,9.03,10.08,13.13,3,17.24,0,0,0,0,19.54,0.0956,18.98,0.02,0.02,20,105,16,210,Indigo,20,11,19.0345,0,0,3.0606,9,2,10,466.36,2.32221,87.8
LM2,1320,2.66,14.52,33,9.03,10.08,13.13,3,17.24,0,0,0,0,19.54,0.0956,18.98,0.02,0.02,20,105,16,210,Indigo,20,11,19.0345,0,0,3.0606,9,2,10,466.36,2.34483,87.6812
LM2,1320,2.66,14.52,33,9.03,10.08,13.13,3,17.24,0,0,0,0,19.54,0.0956,18.98,0.02,0.02,20,105,23,210,Indigo,20,11,19.0345,0,0,3.0606,9,2,10,466.36,3.06989,83.872
LM2,1320,2.66,14.52,33,9.03,10.08,13.13,3,17.24,0,0,0,0,19.54,0.0956,18.98,0.02,0.01,5,105,9,150,Indigo,20,11,19.0345,0,0,3.0606,9,2,10,466.36,7.2331,62
LM2,1320,2.66,14.52,33,9.03,10.08,13.13,3,17.24,0,0,0,0,19.54,0.0956,18.98,0.02,0.01,5,105,9,150,Indigo,20,11,19.0345,0,0,3.0606,9,2,10,466.36,7.39205,61.165
LM2,1320,2.66,14.52,33,9.03,10.08,13.13,3,17.24,0,0,0,0,19.54,0.0956,18.98,0.02,0.01,10,105,9,150,Indigo,20,11,19.0345,0,0,3.0606,9,2,10,466.36,5.75297,69.7761
LM2,1320,2.66,14.52,33,9.03,10.08,13.13,3,17.24,0,0,0,0,19.54,0.0956,18.98,0.02,0.02,15,105,9,150,Indigo,20,11,19.0345,0,0,3.0606,9,2,10,466.36,4.18759,78
LM2,1320,2.66,14.52,33,9.03,10.08,13.13,3,17.24,0,0,0,0,19.54,0.0956,18.98,0.02,0.02,15,105,9,150,Indigo,20,11,19.0345,0,0,3.0606,9,2,10,466.36,3.78621,80.1087
LM2,1320,2.66,14.52,33,9.03,10.08,13.13,3,17.24,0,0,0,0,19.54,0.0956,18.98,0.02,0.02,20,105,9,150,Indigo,20,11,19.0345,0,0,3.0606,9,2,10,466.36,3.55264,81.3357
LM2,1320,2.66,14.52,33,9.03,10.08,13.13,3,17.24,0,0,0,0,19.54,0.0956,18.98,0.02,0.03,30,105,9,150,Indigo,20,11,19.0345,0,0,3.0606,9,2,10,466.36,1.90469,89.9935
LM2,1320,2.66,14.52,33,9.03,10.08,13.13,3,17.24,0,0,0,0,19.54,0.0956,18.98,0.02,0.03,30,105,9,150,Indigo,20,11,19.0345,0,0,3.0606,9,2,10,466.36,2.07218,89.1135
LM2,1320,2.66,14.52,33,9.03,10.08,13.13,3,17.24,0,0,0,0,19.54,0.0956,18.98,0.02,0.04,40,105,9,150,Indigo,20,11,19.0345,0,0,3.0606,9,2,10,466.36,0.784828,95.8768
LM2,1320,2.66,14.52,33,9.03,10.08,13.13,3,17.24,0,0,0,0,19.54,0.0956,18.98,0.02,0.05,50,105,9,150,Indigo,20,11,19.0345,0,0,3.0606,9,2,10,466.36,0.951724,95
LM2,1320,2.66,14.52,33,9.03,10.08,13.13,3,17.24,0,0,0,0,19.54,0.0956,18.98,0.02,0.05,50,105,9,150,Indigo,20,11,19.0345,0,0,3.0606,9,2,10,466.36,1.01149,94.686
LM2,1320,2.66,14.52,33,9.03,10.08,13.13,3,17.24,0,0,0,0,19.54,0.0956,18.98,0.02,0.02,20,105,9,150,Indigo,10,11,19.0345,0,0,3.0606,9,2,10,466.36,0.793103,95.8333
LM2,1320,2.66,14.52,33,9.03,10.08,13.13,3,17.24,0,0,0,0,19.54,0.0956,18.98,0.02,0.02,20,105,9,150,Indigo,20,11,19.0345,0,0,3.0606,9,2,10,466.36,2.50575,86.8357
LM2,1320,2.66,14.52,33,9.03,10.08,13.13,3,17.24,0,0,0,0,19.54,0.0956,18.98,0.02,0.02,20,105,9,150,Indigo,20,11,19.0345,0,0,3.0606,9,2,10,466.36,2.47448,87
LM2,1320,2.66,14.52,33,9.03,10.08,13.13,3,17.24,0,0,0,0,19.54,0.0956,18.98,0.02,0.02,20,105,9,150,Indigo,30,11,19.0345,0,0,3.0606,9,2,10,466.36,3.2069,83.1522
LM2,1320,2.66,14.52,33,9.03,10.08,13.13,3,17.24,0,0,0,0,19.54,0.0956,18.98,0.02,0.02,20,105,9,150,Indigo,40,11,19.0345,0,0,3.0606,9,2,10,466.36,4.75862,75
LM2,1320,2.66,14.52,33,9.03,10.08,13.13,3,17.24,0,0,0,0,19.54,0.0956,18.98,0.02,0.02,20,105,9,150,Indigo,40,11,19.0345,0,0,3.0606,9,2,10,466.36,4.55172,76.087
LM2,1320,2.66,14.52,33,9.03,10.08,13.13,3,17.24,0,0,0,0,19.54,0.0956,18.98,0.02,0.02,20,105,9,150,Indigo,50,11,19.0345,0,0,3.0606,9,2,10,466.36,8.7,54.2935
LM2,1320,2.66,14.52,33,9.03,10.08,13.13,3,17.24,0,0,0,0,19.54,0.0956,18.98,0.02,0.02,20,105,9,150,Indigo,60,11,19.0345,0,0,3.0606,9,2,10,466.36,12.5641,33.9928
LM2,1320,2.66,14.52,33,9.03,10.08,13.13,3,17.24,0,0,0,0,19.54,0.0956,18.98,0.02,0.02,20,105,9,150,Indigo,60,11,19.0345,0,0,3.0606,9,2,10,466.36,12.9855,31.779
LM2,1320,2.66,14.52,33,9.03,10.08,13.13,3,17.24,0,0,0,0,19.54,0.0956,18.98,0.02,0.02,20,105,9,150,Indigo,80,11,19.0345,0,0,3.0606,9,2,10,466.36,14.8368,22.0531
LM2,1320,2.66,14.52,33,9.03,10.08,13.13,3,17.24,0,0,0,0,19.54,0.0956,18.98,0.02,0.02,20,105,9,150,Indigo,100,11,19.0345,0,0,3.0606,9,2,10,466.36,16.1793,15
LM2,1320,2.66,14.52,33,9.03,10.08,13.13,3,17.24,0,0,0,0,19.54,0.0956,18.98,0.02,0.02,20,105,9,150,Indigo,100,11,19.0345,0,0,3.0606,9,2,10,466.36,16.0354,15.756
no catalyst,0,0,0,0,0,0,0,0,0,0,0,0,0,0,0,0,0.1,0,0,105,12,0,Melachite Green,10,5.45,10,0,without Anion,1.3976,2,0,40,364.911,10,0
no catalyst,0,0,0,0,0,0,0,0,0,0,0,0,0,0,0,0,0.1,0,0,105,12,30,Melachite Green,10,5.45,10,0,without Anion,1.3976,2,0,40,364.911,9.98,0.2
no catalyst,0,0,0,0,0,0,0,0,0,0,0,0,0,0,0,0,0.1,0,0,105,12,60,Melachite Green,10,5.45,10,0,without Anion,1.3976,2,0,40,364.911,9.96,0.4
no catalyst,0,0,0,0,0,0,0,0,0,0,0,0,0,0,0,0,0.1,0,0,105,12,90,Melachite Green,10,5.45,10,0,without Anion,1.3976,2,0,40,364.911,9.94,0.6
no catalyst,0,0,0,0,0,0,0,0,0,0,0,0,0,0,0,0,0.1,0,0,105,12,120,Melachite Green,10,5.45,10,0,without Anion,1.3976,2,0,40,364.911,9.87,1.3
no catalyst,0,0,0,0,0,0,0,0,0,0,0,0,0,0,0,0,0.1,0,0,105,12,150,Melachite Green,10,5.45,10,0,without Anion,1.3976,2,0,40,364.911,9.83,1.7
no catalyst,0,0,0,0,0,0,0,0,0,0,0,0,0,0,0,0,0.1,0,0,105,12,180,Melachite Green,10,5.45,10,0,without Anion,1.3976,2,0,40,364.911,9.82,1.8
no catalyst,0,0,0,0,0,0,0,0,0,0,0,0,0,0,0,0,0.1,0,0,105,12,210,Melachite Green,10,5.45,10,0,without Anion,1.3976,2,0,40,364.911,9.82,1.8
no catalyst,0,0,0,0,0,0,0,0,0,0,0,0,0,0,0,0,0.1,0,0,105,12,240,Melachite Green,10,5.45,10,0,without Anion,1.3976,2,0,40,364.911,9.81,1.9
no catalyst,0,0,0,0,0,0,0,0,0,0,0,0,0,0,0,0,0.1,0,0,105,12,270,Melachite Green,10,5.45,10,0,without Anion,1.3976,2,0,40,364.911,9.8,2
no catalyst,0,0,0,0,0,0,0,0,0,0,0,0,0,0,0,0,0.1,0,0,105,12,0,Melachite Green,10,5.45,10,0,without Anion,1.3976,2,0,40,364.911,10,0
no catalyst,0,0,0,0,0,0,0,0,0,0,0,0,0,0,0,0,0.1,0,0,105,12,30,Melachite Green,10,5.45,10,0,without Anion,1.3976,2,0,40,364.911,9.97,0.3
no catalyst,0,0,0,0,0,0,0,0,0,0,0,0,0,0,0,0,0.1,0,0,105,12,60,Melachite Green,10,5.45,10,0,without Anion,1.3976,2,0,40,364.911,9.95,0.5
no catalyst,0,0,0,0,0,0,0,0,0,0,0,0,0,0,0,0,0.1,0,0,105,12,90,Melachite Green,10,5.45,10,0,without Anion,1.3976,2,0,40,364.911,9.91,0.9
no catalyst,0,0,0,0,0,0,0,0,0,0,0,0,0,0,0,0,0.1,0,0,105,12,120,Melachite Green,10,5.45,10,0,without Anion,1.3976,2,0,40,364.911,9.88,1.2
no catalyst,0,0,0,0,0,0,0,0,0,0,0,0,0,0,0,0,0.1,0,0,105,12,150,Melachite Green,10,5.45,10,0,without Anion,1.3976,2,0,40,364.911,9.85,1.5
no catalyst,0,0,0,0,0,0,0,0,0,0,0,0,0,0,0,0,0.1,0,0,105,12,180,Melachite Green,10,5.45,10,0,without Anion,1.3976,2,0,40,364.911,9.81,1.9
no catalyst,0,0,0,0,0,0,0,0,0,0,0,0,0,0,0,0,0.1,0,0,105,12,210,Melachite Green,10,5.45,10,0,without Anion,1.3976,2,0,40,364.911,9.79,2.1
no catalyst,0,0,0,0,0,0,0,0,0,0,0,0,0,0,0,0,0.1,0,0,105,12,240,Melachite Green,10,5.45,10,0,without Anion,1.3976,2,0,40,364.911,9.79,2.1
no catalyst,0,0,0,0,0,0,0,0,0,0,0,0,0,0,0,0,0.1,0,0,105,12,270,Melachite Green,10,5.45,10,0,without Anion,1.3976,2,0,40,364.911,9.78,2.2
no catalyst,0,0,0,0,0,0,0,0,0,0,0,0,0,0,0,0,0.1,0,0,105,12,0,Melachite Green,10,5.45,10,0,without Anion,1.3976,2,0,40,364.911,10,0
no catalyst,0,0,0,0,0,0,0,0,0,0,0,0,0,0,0,0,0.1,0,0,105,12,30,Melachite Green,10,5.45,10,0,without Anion,1.3976,2,0,40,364.911,9.97,0.3
no catalyst,0,0,0,0,0,0,0,0,0,0,0,0,0,0,0,0,0.1,0,0,105,12,60,Melachite Green,10,5.45,10,0,without Anion,1.3976,2,0,40,364.911,9.91,0.9
no catalyst,0,0,0,0,0,0,0,0,0,0,0,0,0,0,0,0,0.1,0,0,105,12,90,Melachite Green,10,5.45,10,0,without Anion,1.3976,2,0,40,364.911,9.88,1.2
no catalyst,0,0,0,0,0,0,0,0,0,0,0,0,0,0,0,0,0.1,0,0,105,12,120,Melachite Green,10,5.45,10,0,without Anion,1.3976,2,0,40,364.911,9.87,1.3
no catalyst,0,0,0,0,0,0,0,0,0,0,0,0,0,0,0,0,0.1,0,0,105,12,150,Melachite Green,10,5.45,10,0,without Anion,1.3976,2,0,40,364.911,9.85,1.5
no catalyst,0,0,0,0,0,0,0,0,0,0,0,0,0,0,0,0,0.1,0,0,105,12,180,Melachite Green,10,5.45,10,0,without Anion,1.3976,2,0,40,364.911,9.83,1.7
no catalyst,0,0,0,0,0,0,0,0,0,0,0,0,0,0,0,0,0.1,0,0,105,12,210,Melachite Green,10,5.45,10,0,without Anion,1.3976,2,0,40,364.911,9.8,2
no catalyst,0,0,0,0,0,0,0,0,0,0,0,0,0,0,0,0,0.1,0,0,105,12,240,Melachite Green,10,5.45,10,0,without Anion,1.3976,2,0,40,364.911,9.79,2.1
no catalyst,0,0,0,0,0,0,0,0,0,0,0,0,0,0,0,0,0.1,0,0,105,12,270,Melachite Green,10,5.45,10,0,without Anion,1.3976,2,0,40,364.911,9.78,2.2
pure BFO,720,2.6,0,31.6,13.1,0,0,0,0,55.3,0,0,0,11.2,0.0028,1.15,0.1,0.1,100,105,12,0,Melachite Green,10,5.45,10,0,without Anion,1.3976,2,0,40,364.911,10,0
pure BFO,720,2.6,0,31.6,13.1,0,0,0,0,55.3,0,0,0,11.2,0.0028,1.15,0.1,0.1,100,105,12,120,Melachite Green,10,5.45,10,0,without Anion,1.3976,2,0,40,364.911,5.8,42
pure BFO,720,2.6,0,31.6,13.1,0,0,0,0,55.3,0,0,0,11.2,0.0028,1.15,0.1,0.1,100,105,12,240,Melachite Green,10,5.45,10,0,without Anion,1.3976,2,0,40,364.911,3.2,68
pure BFO,720,2.6,0,31.6,13.1,0,0,0,0,55.3,0,0,0,11.2,0.0028,1.15,0.1,0.1,100,105,12,60,Melachite Green,10,5.45,10,0,without Anion,1.3976,2,0,40,364.911,7.4,26
pure BFO,720,2.6,0,31.6,13.1,0,0,0,0,55.3,0,0,0,11.2,0.0028,1.15,0.1,0.1,100,105,12,180,Melachite Green,10,5.45,10,0,without Anion,1.3976,2,0,40,364.911,4.68,53.2
pure BFO,720,2.6,0,31.6,13.1,0,0,0,0,55.3,0,0,0,11.2,0.0028,1.15,0.1,0.1,100,105,12,0,Melachite Green,10,5.45,10,0,without Anion,1.3976,2,0,40,364.911,10,0
pure BFO,720,2.6,0,31.6,13.1,0,0,0,0,55.3,0,0,0,11.2,0.0028,1.15,0.1,0.1,100,105,12,120,Melachite Green,10,5.45,10,0,without Anion,1.3976,2,0,40,364.911,5.79,42.1
pure BFO,720,2.6,0,31.6,13.1,0,0,0,0,55.3,0,0,0,11.2,0.0028,1.15,0.1,0.1,100,105,12,240,Melachite Green,10,5.45,10,0,without Anion,1.3976,2,0,40,364.911,3.19,68.1
0.5 wt% Pd-BFO,960,2.28,0,31.35,13,0,0,0,0,55.16,0,0.49,0,13.4,0.0033,1.48,0.1,0.1,100,105,12,60,Melachite Green,10,5.45,10,0,without Anion,1.3976,2,0,40,364.911,7.25,27.5
0.5 wt% Pd-BFO,960,2.28,0,31.35,13,0,0,0,0,55.16,0,0.49,0,13.4,0.0033,1.48,0.1,0.1,100,105,12,180,Melachite Green,10,5.45,10,0,without Anion,1.3976,2,0,40,364.911,4.06,59.4
0.5 wt% Pd-BFO,960,2.28,0,31.35,13,0,0,0,0,55.16,0,0.49,0,13.4,0.0033,1.48,0.1,0.1,100,105,12,0,Melachite Green,10,5.45,10,0,without Anion,1.3976,2,0,40,364.911,10,0
0.5 wt% Pd-BFO,960,2.28,0,31.35,13,0,0,0,0,55.16,0,0.49,0,13.4,0.0033,1.48,0.1,0.1,100,105,12,120,Melachite Green,10,5.45,10,0,without Anion,1.3976,2,0,40,364.911,5.34,46.6
0.5 wt% Pd-BFO,960,2.28,0,31.35,13,0,0,0,0,55.16,0,0.49,0,13.4,0.0033,1.48,0.1,0.1,100,105,12,240,Melachite Green,10,5.45,10,0,without Anion,1.3976,2,0,40,364.911,2.63,73.7
0.5 wt% Pd-BFO,960,2.28,0,31.35,13,0,0,0,0,55.16,0,0.49,0,13.4,0.0033,1.48,0.1,0.1,100,105,12,60,Melachite Green,10,5.45,10,0,without Anion,1.3976,2,0,40,364.911,7.28,27.2
0.5 wt% Pd-BFO,960,2.28,0,31.35,13,0,0,0,0,55.16,0,0.49,0,13.4,0.0033,1.48,0.1,0.1,100,105,12,180,Melachite Green,10,5.45,10,0,without Anion,1.3976,2,0,40,364.911,3.97,60.3
1 wt% Pd-BFO,960,2.2,0,29.17,13.99,0,0,0,0,55.83,0,1.01,0,16.7,0.0037,1.82,0.1,0.1,100,105,12,0,Melachite Green,10,5.45,10,0,without Anion,1.3976,2,0,40,364.911,10,0
1 wt% Pd-BFO,960,2.2,0,29.17,13.99,0,0,0,0,55.83,0,1.01,0,16.7,0.0037,1.82,0.1,0.1,100,105,12,120,Melachite Green,10,5.45,10,0,without Anion,1.3976,2,0,40,364.911,5.06,49.4
1 wt% Pd-BFO,960,2.2,0,29.17,13.99,0,0,0,0,55.83,0,1.01,0,16.7,0.0037,1.82,0.1,0.1,100,105,12,240,Melachite Green,10,5.45,10,0,without Anion,1.3976,2,0,40,364.911,1.99,80.1
1 wt% Pd-BFO,960,2.2,0,29.17,13.99,0,0,0,0,55.83,0,1.01,0,16.7,0.0037,1.82,0.1,0.1,100,105,12,60,Melachite Green,10,5.45,10,0,without Anion,1.3976,2,0,40,364.911,7.69,23.1
1 wt% Pd-BFO,960,2.2,0,29.17,13.99,0,0,0,0,55.83,0,1.01,0,16.7,0.0037,1.82,0.1,0.1,100,105,12,180,Melachite Green,10,5.45,10,0,without Anion,1.3976,2,0,40,364.911,3.5,65
1 wt% Pd-BFO,960,2.2,0,29.17,13.99,0,0,0,0,55.83,0,1.01,0,16.7,0.0037,1.82,0.1,0.1,100,105,12,0,Melachite Green,10,5.45,10,0,without Anion,1.3976,2,0,40,364.911,10,0
1 wt% Pd-BFO,960,2.2,0,29.17,13.99,0,0,0,0,55.83,0,1.01,0,16.7,0.0037,1.82,0.1,0.1,100,105,12,120,Melachite Green,10,5.45,10,0,without Anion,1.3976,2,0,40,364.911,5.02,49.8
1 wt% Pd-BFO,960,2.2,0,29.17,13.99,0,0,0,0,55.83,0,1.01,0,16.7,0.0037,1.82,0.1,0.1,100,105,12,240,Melachite Green,10,5.45,10,0,without Anion,1.3976,2,0,40,364.911,2.01,79.9
2 wt% Pd-BFO,960,2.1,0,26.1,16.99,0,0,0,0,54.9,0,2.01,0,22.9,0.0046,2.67,0.1,0.1,100,105,12,60,Melachite Green,10,5.45,10,0,without Anion,1.3976,2,0,40,364.911,6.23,37.7
2 wt% Pd-BFO,960,2.1,0,26.1,16.99,0,0,0,0,54.9,0,2.01,0,22.9,0.0046,2.67,0.1,0.1,100,105,12,180,Melachite Green,10,5.45,10,0,without Anion,1.3976,2,0,40,364.911,2.13,78.7
2 wt% Pd-BFO,960,2.1,0,26.1,16.99,0,0,0,0,54.9,0,2.01,0,22.9,0.0046,2.67,0.1,0.1,100,105,12,0,Melachite Green,10,5.45,10,0,without Anion,1.3976,2,0,40,364.911,10,0
2 wt% Pd-BFO,960,2.1,0,26.1,16.99,0,0,0,0,54.9,0,2.01,0,22.9,0.0046,2.67,0.1,0.1,100,105,12,120,Melachite Green,10,5.45,10,0,without Anion,1.3976,2,0,40,364.911,3.77,62.3
2 wt% Pd-BFO,960,2.1,0,26.1,16.99,0,0,0,0,54.9,0,2.01,0,22.9,0.0046,2.67,0.1,0.1,100,105,12,240,Melachite Green,10,5.45,10,0,without Anion,1.3976,2,0,40,364.911,0.98,90.2
2 wt% Pd-BFO,960,2.1,0,26.1,16.99,0,0,0,0,54.9,0,2.01,0,22.9,0.0046,2.67,0.1,0.1,100,105,12,60,Melachite Green,10,5.45,10,0,without Anion,1.3976,2,0,40,364.911,6.2,38
2 wt% Pd-BFO,960,2.1,0,26.1,16.99,0,0,0,0,54.9,0,2.01,0,22.9,0.0046,2.67,0.1,0.1,100,105,12,180,Melachite Green,10,5.45,10,0,without Anion,1.3976,2,0,40,364.911,2.09,79.1
3 wt% Pd-BFO,960,2.22,0,25.84,16.65,0,0,0,0,54.46,0,3.05,0,19.5,0.0042,2.34,0.1,0.1,100,105,12,0,Melachite Green,10,5.45,10,0,without Anion,1.3976,2,0,40,364.911,10,0
3 wt% Pd-BFO,960,2.22,0,25.84,16.65,0,0,0,0,54.46,0,3.05,0,19.5,0.0042,2.34,0.1,0.1,100,105,12,120,Melachite Green,10,5.45,10,0,without Anion,1.3976,2,0,40,364.911,4.82,51.8
3 wt% Pd-BFO,960,2.22,0,25.84,16.65,0,0,0,0,54.46,0,3.05,0,19.5,0.0042,2.34,0.1,0.1,100,105,12,240,Melachite Green,10,5.45,10,0,without Anion,1.3976,2,0,40,364.911,1.62,83.8
3 wt% Pd-BFO,960,2.22,0,25.84,16.65,0,0,0,0,54.46,0,3.05,0,19.5,0.0042,2.34,0.1,0.1,100,105,12,60,Melachite Green,10,5.45,10,0,without Anion,1.3976,2,0,40,364.911,7.36,26.4
3 wt% Pd-BFO,960,2.22,0,25.84,16.65,0,0,0,0,54.46,0,3.05,0,19.5,0.0042,2.34,0.1,0.1,100,105,12,180,Melachite Green,10,5.45,10,0,without Anion,1.3976,2,0,40,364.911,2.66,73.4
3 wt% Pd-BFO,960,2.22,0,25.84,16.65,0,0,0,0,54.46,0,3.05,0,19.5,0.0042,2.34,0.1,0.1,100,105,12,0,Melachite Green,10,5.45,10,0,without Anion,1.3976,2,0,40,364.911,10,0
3 wt% Pd-BFO,960,2.22,0,25.84,16.65,0,0,0,0,54.46,0,3.05,0,19.5,0.0042,2.34,0.1,0.1,100,105,12,120,Melachite Green,10,5.45,10,0,without Anion,1.3976,2,0,40,364.911,4.77,52.3
3 wt% Pd-BFO,960,2.22,0,25.84,16.65,0,0,0,0,54.46,0,3.05,0,19.5,0.0042,2.34,0.1,0.1,100,105,12,240,Melachite Green,10,5.45,10,0,without Anion,1.3976,2,0,40,364.911,1.6,84
1 wt% Ag-BFO,960,2.5,0,28.98,14.99,0,0,0,0,55.19,0.84,0,0,11.9,0.0028,1.27,0.1,0.1,100,105,12,60,Melachite Green,10,5.45,10,0,without Anion,1.3976,2,0,40,364.911,7.49,25.1
1 wt% Ag-BFO,960,2.5,0,28.98,14.99,0,0,0,0,55.19,0.84,0,0,11.9,0.0028,1.27,0.1,0.1,100,105,12,180,Melachite Green,10,5.45,10,0,without Anion,1.3976,2,0,40,364.911,4.59,54.1
1 wt% Ag-BFO,960,2.5,0,28.98,14.99,0,0,0,0,55.19,0.84,0,0,11.9,0.0028,1.27,0.1,0.1,100,105,12,0,Melachite Green,10,5.45,10,0,without Anion,1.3976,2,0,40,364.911,10,0
[...]
2 wt% Pd-BFO,960,2.1,0,26.1,16.99,0,0,0,0,54.9,0,2.01,0,22.9,0.0046,2.67,0.1,0.15,150,105,12,180,Melachite Green,10,5.45,10,0,without Anion,1.3976,2,0,40,364.911,1.8,82
2 wt% Pd-BFO,960,2.1,0,26.1,16.99,0,0,0,0,54.9,0,2.01,0,22.9,0.0046,2.67,0.1,0.15,150,105,12,0,Melachite Green,20,5.45,20,0,without Anion,1.3976,2,0,40,364.911,20,0
2 wt% Pd-BFO,960,2.1,0,26.1,16.99,0,0,0,0,54.9,0,2.01,0,22.9,0.0046,2.67,0.1,0.15,150,105,12,120,Melachite Green,20,5.45,20,0,without Anion,1.3976,2,0,40,364.911,11.15,44.25
2 wt% Pd-BFO,960,2.1,0,26.1,16.99,0,0,0,0,54.9,0,2.01,0,22.9,0.0046,2.67,0.1,0.15,150,105,12,240,Melachite Green,20,5.45,20,0,without Anion,1.3976,2,0,40,364.911,5.01,74.95
2 wt% Pd-BFO,960,2.1,0,26.1,16.99,0,0,0,0,54.9,0,2.01,0,22.9,0.0046,2.67,0.1,0.15,150,105,12,60,Melachite Green,20,5.45,20,0,without Anion,1.3976,2,0,40,364.911,14.74,26.3
2 wt% Pd-BFO,960,2.1,0,26.1,16.99,0,0,0,0,54.9,0,2.01,0,22.9,0.0046,2.67,0.1,0.15,150,105,12,180,Melachite Green,20,5.45,20,0,without Anion,1.3976,2,0,40,364.911,7.77,61.15
2 wt% Pd-BFO,960,2.1,0,26.1,16.99,0,0,0,0,54.9,0,2.01,0,22.9,0.0046,2.67,0.1,0.15,150,105,12,0,Melachite Green,20,5.45,20,0,without Anion,1.3976,2,0,40,364.911,20,0
2 wt% Pd-BFO,960,2.1,0,26.1,16.99,0,0,0,0,54.9,0,2.01,0,22.9,0.0046,2.67,0.1,0.15,150,105,12,120,Melachite Green,20,5.45,20,0,without Anion,1.3976,2,0,40,364.911,11.1,44.5
2 wt% Pd-BFO,960,2.1,0,26.1,16.99,0,0,0,0,54.9,0,2.01,0,22.9,0.0046,2.67,0.1,0.15,150,105,12,240,Melachite Green,20,5.45,20,0,without Anion,1.3976,2,0,40,364.911,4.97,75.15
2 wt% Pd-BFO,960,2.1,0,26.1,16.99,0,0,0,0,54.9,0,2.01,0,22.9,0.0046,2.67,0.1,0.15,150,105,12,60,Melachite Green,40,5.45,40,0,without Anion,1.3976,2,0,40,364.911,35.03,12.425
2 wt% Pd-BFO,960,2.1,0,26.1,16.99,0,0,0,0,54.9,0,2.01,0,22.9,0.0046,2.67,0.1,0.15,150,105,12,180,Melachite Green,40,5.45,40,0,without Anion,1.3976,2,0,40,364.911,28.02,29.95
2 wt% Pd-BFO,960,2.1,0,26.1,16.99,0,0,0,0,54.9,0,2.01,0,22.9,0.0046,2.67,0.1,0.15,150,105,12,0,Melachite Green,40,5.45,40,0,without Anion,1.3976,2,0,40,364.911,40,0
2 wt% Pd-BFO,960,2.1,0,26.1,16.99,0,0,0,0,54.9,0,2.01,0,22.9,0.0046,2.67,0.1,0.15,150,105,12,120,Melachite Green,40,5.45,40,0,without Anion,1.3976,2,0,40,364.911,31.62,20.95
2 wt% Pd-BFO,960,2.1,0,26.1,16.99,0,0,0,0,54.9,0,2.01,0,22.9,0.0046,2.67,0.1,0.15,150,105,12,240,Melachite Green,40,5.45,40,0,without Anion,1.3976,2,0,40,364.911,24.65,38.375
2 wt% Pd-BFO,960,2.1,0,26.1,16.99,0,0,0,0,54.9,0,2.01,0,22.9,0.0046,2.67,0.1,0.15,150,105,12,60,Melachite Green,40,5.45,40,0,without Anion,1.3976,2,0,40,364.911,35.06,12.35
2 wt% Pd-BFO,960,2.1,0,26.1,16.99,0,0,0,0,54.9,0,2.01,0,22.9,0.0046,2.67,0.1,0.15,150,105,12,180,Melachite Green,40,5.45,40,0,without Anion,1.3976,2,0,40,364.911,28.06,29.85
2 wt% Pd-BFO,960,2.1,0,26.1,16.99,0,0,0,0,54.9,0,2.01,0,22.9,0.0046,2.67,0.1,0.15,150,105,12,0,Melachite Green,80,5.45,80,0,without Anion,1.3976,2,0,40,364.911,80,0
2 wt% Pd-BFO,960,2.1,0,26.1,16.99,0,0,0,0,54.9,0,2.01,0,22.9,0.0046,2.67,0.1,0.15,150,105,12,120,Melachite Green,80,5.45,80,0,without Anion,1.3976,2,0,40,364.911,72.71,9.1125
2 wt% Pd-BFO,960,2.1,0,26.1,16.99,0,0,0,0,54.9,0,2.01,0,22.9,0.0046,2.67,0.1,0.15,150,105,12,240,Melachite Green,80,5.45,80,0,without Anion,1.3976,2,0,40,364.911,65.82,17.725
2 wt% Pd-BFO,960,2.1,0,26.1,16.99,0,0,0,0,54.9,0,2.01,0,22.9,0.0046,2.67,0.1,0.15,150,105,12,60,Melachite Green,80,5.45,80,0,without Anion,1.3976,2,0,40,364.911,76.17,4.7875
2 wt% Pd-BFO,960,2.1,0,26.1,16.99,0,0,0,0,54.9,0,2.01,0,22.9,0.0046,2.67,0.1,0.15,150,105,12,180,Melachite Green,80,5.45,80,0,without Anion,1.3976,2,0,40,364.911,69.4,13.25
2 wt% Pd-BFO,960,2.1,0,26.1,16.99,0,0,0,0,54.9,0,2.01,0,22.9,0.0046,2.67,0.1,0.15,150,105,12,0,Melachite Green,80,5.45,80,0,without Anion,1.3976,2,0,40,364.911,80,0
2 wt% Pd-BFO,960,2.1,0,26.1,16.99,0,0,0,0,54.9,0,2.01,0,22.9,0.0046,2.67,0.1,0.15,150,105,12,120,Melachite Green,80,5.45,80,0,without Anion,1.3976,2,0,40,364.911,72.75,9.0625
2 wt% Pd-BFO,960,2.1,0,26.1,16.99,0,0,0,0,54.9,0,2.01,0,22.9,0.0046,2.67,0.1,0.15,150,105,12,240,Melachite Green,80,5.45,80,0,without Anion,1.3976,2,0,40,364.911,65.85,17.6875
2 wt% Pd-BFO,960,2.1,0,26.1,16.99,0,0,0,0,54.9,0,2.01,0,22.9,0.0046,2.67,0.1,0.15,150,105,12,60,Melachite Green,5,3,5,0,without Anion,1.3976,2,0,40,364.911,4.13,17.4
2 wt% Pd-BFO,960,2.1,0,26.1,16.99,0,0,0,0,54.9,0,2.01,0,22.9,0.0046,2.67,0.1,0.15,150,105,12,180,Melachite Green,5,3,5,0,without Anion,1.3976,2,0,40,364.911,2.44,51.2
2 wt% Pd-BFO,960,2.1,0,26.1,16.99,0,0,0,0,54.9,0,2.01,0,22.9,0.0046,2.67,0.1,0.15,150,105,12,0,Melachite Green,5,3,5,0,without Anion,1.3976,2,0,40,364.911,5,0
2 wt% Pd-BFO,960,2.1,0,26.1,16.99,0,0,0,0,54.9,0,2.01,0,22.9,0.0046,2.67,0.1,0.15,150,105,12,120,Melachite Green,5,3,5,0,without Anion,1.3976,2,0,40,364.911,3.25,35
2 wt% Pd-BFO,960,2.1,0,26.1,16.99,0,0,0,0,54.9,0,2.01,0,22.9,0.0046,2.67,0.1,0.15,150,105,12,240,Melachite Green,5,3,5,0,without Anion,1.3976,2,0,40,364.911,1.5,70
2 wt% Pd-BFO,960,2.1,0,26.1,16.99,0,0,0,0,54.9,0,2.01,0,22.9,0.0046,2.67,0.1,0.15,150,105,12,60,Melachite Green,5,3,5,0,without Anion,1.3976,2,0,40,364.911,4.1,18
2 wt% Pd-BFO,960,2.1,0,26.1,16.99,0,0,0,0,54.9,0,2.01,0,22.9,0.0046,2.67,0.1,0.15,150,105,12,180,Melachite Green,5,3,5,0,without Anion,1.3976,2,0,40,364.911,2.4,52
2 wt% Pd-BFO,960,2.1,0,26.1,16.99,0,0,0,0,54.9,0,2.01,0,22.9,0.0046,2.67,0.1,0.15,150,105,12,0,Melachite Green,5,5,5,0,without Anion,1.3976,2,0,40,364.911,5,0
2 wt% Pd-BFO,960,2.1,0,26.1,16.99,0,0,0,0,54.9,0,2.01,0,22.9,0.0046,2.67,0.1,0.15,150,105,12,120,Melachite Green,5,5,5,0,without Anion,1.3976,2,0,40,364.911,1.68,66.4
2 wt% Pd-BFO,960,2.1,0,26.1,16.99,0,0,0,0,54.9,0,2.01,0,22.9,0.0046,2.67,0.1,0.15,150,105,12,240,Melachite Green,5,5,5,0,without Anion,1.3976,2,0,40,364.911,0,100
2 wt% Pd-BFO,960,2.1,0,26.1,16.99,0,0,0,0,54.9,0,2.01,0,22.9,0.0046,2.67,0.1,0.15,150,105,12,60,Melachite Green,5,5,5,0,without Anion,1.3976,2,0,40,364.911,3.42,31.6
2 wt% Pd-BFO,960,2.1,0,26.1,16.99,0,0,0,0,54.9,0,2.01,0,22.9,0.0046,2.67,0.1,0.15,150,105,12,180,Melachite Green,5,5,5,0,without Anion,1.3976,2,0,40,364.911,0.75,85
2 wt% Pd-BFO,960,2.1,0,26.1,16.99,0,0,0,0,54.9,0,2.01,0,22.9,0.0046,2.67,0.1,0.15,150,105,12,0,Melachite Green,5,5,5,0,without Anion,1.3976,2,0,40,364.911,5,0
2 wt% Pd-BFO,960,2.1,0,26.1,16.99,0,0,0,0,54.9,0,2.01,0,22.9,0.0046,2.67,0.1,0.15,150,105,12,120,Melachite Green,5,5,5,0,without Anion,1.3976,2,0,40,364.911,1.7,66
2 wt% Pd-BFO,960,2.1,0,26.1,16.99,0,0,0,0,54.9,0,2.01,0,22.9,0.0046,2.67,0.1,0.15,150,105,12,240,Melachite Green,5,5,5,0,without Anion,1.3976,2,0,40,364.911,0,100
2 wt% Pd-BFO,960,2.1,0,26.1,16.99,0,0,0,0,54.9,0,2.01,0,22.9,0.0046,2.67,0.1,0.15,150,105,12,60,Melachite Green,5,7,5,0,without Anion,1.3976,2,0,40,364.911,2.38,52.4
2 wt% Pd-BFO,960,2.1,0,26.1,16.99,0,0,0,0,54.9,0,2.01,0,22.9,0.0046,2.67,0.1,0.15,150,105,12,180,Melachite Green,5,7,5,0,without Anion,1.3976,2,0,40,364.911,0,100
2 wt% Pd-BFO,960,2.1,0,26.1,16.99,0,0,0,0,54.9,0,2.01,0,22.9,0.0046,2.67,0.1,0.15,150,105,12,0,Melachite Green,5,7,5,0,without Anion,1.3976,2,0,40,364.911,5,0
2 wt% Pd-BFO,960,2.1,0,26.1,16.99,0,0,0,0,54.9,0,2.01,0,22.9,0.0046,2.67,0.1,0.15,150,105,12,120,Melachite Green,5,7,5,0,without Anion,1.3976,2,0,40,364.911,0.85,83
2 wt% Pd-BFO,960,2.1,0,26.1,16.99,0,0,0,0,54.9,0,2.01,0,22.9,0.0046,2.67,0.1,0.15,150,105,12,240,Melachite Green,5,7,5,0,without Anion,1.3976,2,0,40,364.911,0,100
2 wt% Pd-BFO,960,2.1,0,26.1,16.99,0,0,0,0,54.9,0,2.01,0,22.9,0.0046,2.67,0.1,0.15,150,105,12,60,Melachite Green,5,7,5,0,without Anion,1.3976,2,0,40,364.911,2.44,51.2
2 wt% Pd-BFO,960,2.1,0,26.1,16.99,0,0,0,0,54.9,0,2.01,0,22.9,0.0046,2.67,0.1,0.15,150,105,12,180,Melachite Green,5,7,5,0,without Anion,1.3976,2,0,40,364.911,0,100
2 wt% Pd-BFO,960,2.1,0,26.1,16.99,0,0,0,0,54.9,0,2.01,0,22.9,0.0046,2.67,0.1,0.15,150,105,12,0,Melachite Green,5,9,5,0,without Anion,1.3976,2,0,40,364.911,5,0
2 wt% Pd-BFO,960,2.1,0,26.1,16.99,0,0,0,0,54.9,0,2.01,0,22.9,0.0046,2.67,0.1,0.15,150,105,12,120,Melachite Green,5,9,5,0,without Anion,1.3976,2,0,40,364.911,2.84,43.2
2 wt% Pd-BFO,960,2.1,0,26.1,16.99,0,0,0,0,54.9,0,2.01,0,22.9,0.0046,2.67,0.1,0.15,150,105,12,240,Melachite Green,5,9,5,0,without Anion,1.3976,2,0,40,364.911,0.54,89.2
2 wt% Pd-BFO,960,2.1,0,26.1,16.99,0,0,0,0,54.9,0,2.01,0,22.9,0.0046,2.67,0.1,0.15,150,105,12,60,Melachite Green,5,9,5,0,without Anion,1.3976,2,0,40,364.911,4.09,18.2
2 wt% Pd-BFO,960,2.1,0,26.1,16.99,0,0,0,0,54.9,0,2.01,0,22.9,0.0046,2.67,0.1,0.15,150,105,12,180,Melachite Green,5,9,5,0,without Anion,1.3976,2,0,40,364.911,1.73,65.4
2 wt% Pd-BFO,960,2.1,0,26.1,16.99,0,0,0,0,54.9,0,2.01,0,22.9,0.0046,2.67,0.1,0.15,150,105,12,0,Melachite Green,5,9,5,0,without Anion,1.3976,2,0,40,364.911,5,0
2 wt% Pd-BFO,960,2.1,0,26.1,16.99,0,0,0,0,54.9,0,2.01,0,22.9,0.0046,2.67,0.1,0.15,150,105,12,120,Melachite Green,5,9,5,0,without Anion,1.3976,2,0,40,364.911,2.9,42
2 wt% Pd-BFO,960,2.1,0,26.1,16.99,0,0,0,0,54.9,0,2.01,0,22.9,0.0046,2.67,0.1,0.15,150,105,12,240,Melachite Green,5,9,5,0,without Anion,1.3976,2,0,40,364.911,0.58,88.4
2 wt% Pd-BFO,960,2.1,0,26.1,16.99,0,0,0,0,54.9,0,2.01,0,22.9,0.0046,2.67,0.1,0.15,150,105,12,60,Melachite Green,5,7,5,2,without Anion,1.3976,2,0,40,364.911,2.98,40.4
2 wt% Pd-BFO,960,2.1,0,26.1,16.99,0,0,0,0,54.9,0,2.01,0,22.9,0.0046,2.67,0.1,0.15,150,105,12,180,Melachite Green,5,7,5,2,without Anion,1.3976,2,0,40,364.911,0.22,95.6
2 wt% Pd-BFO,960,2.1,0,26.1,16.99,0,0,0,0,54.9,0,2.01,0,22.9,0.0046,2.67,0.1,0.15,150,105,12,0,Melachite Green,5,7,5,2,without Anion,1.3976,2,0,40,364.911,5,0
2 wt% Pd-BFO,960,2.1,0,26.1,16.99,0,0,0,0,54.9,0,2.01,0,22.9,0.0046,2.67,0.1,0.15,150,105,12,120,Melachite Green,5,7,5,2,without Anion,1.3976,2,0,40,364.911,1.51,69.8
2 wt% Pd-BFO,960,2.1,0,26.1,16.99,0,0,0,0,54.9,0,2.01,0,22.9,0.0046,2.67,0.1,0.15,150,105,12,240,Melachite Green,5,7,5,2,without Anion,1.3976,2,0,40,364.911,0,100
2 wt% Pd-BFO,960,2.1,0,26.1,16.99,0,0,0,0,54.9,0,2.01,0,22.9,0.0046,2.67,0.1,0.15,150,105,12,60,Melachite Green,5,7,5,2,without Anion,1.3976,2,0,40,364.911,3.06,38.8
2 wt% Pd-BFO,960,2.1,0,26.1,16.99,0,0,0,0,54.9,0,2.01,0,22.9,0.0046,2.67,0.1,0.15,150,105,12,180,Melachite Green,5,7,5,2,without Anion,1.3976,2,0,40,364.911,0.35,93
2 wt% Pd-BFO,960,2.1,0,26.1,16.99,0,0,0,0,54.9,0,2.01,0,22.9,0.0046,2.67,0.1,0.15,150,105,12,0,Melachite Green,5,7,5,5,without Anion,1.3976,2,0,40,364.911,5,0
2 wt% Pd-BFO,960,2.1,0,26.1,16.99,0,0,0,0,54.9,0,2.01,0,22.9,0.0046,2.67,0.1,0.15,150,105,12,120,Melachite Green,5,7,5,5,without Anion,1.3976,2,0,40,364.911,1.73,65.4
2 wt% Pd-BFO,960,2.1,0,26.1,16.99,0,0,0,0,54.9,0,2.01,0,22.9,0.0046,2.67,0.1,0.15,150,105,12,240,Melachite Green,5,7,5,5,without Anion,1.3976,2,0,40,364.911,0.1,98
2 wt% Pd-BFO,960,2.1,0,26.1,16.99,0,0,0,0,54.9,0,2.01,0,22.9,0.0046,2.67,0.1,0.15,150,105,12,60,Melachite Green,5,7,5,5,without Anion,1.3976,2,0,40,364.911,3.29,34.2
2 wt% Pd-BFO,960,2.1,0,26.1,16.99,0,0,0,0,54.9,0,2.01,0,22.9,0.0046,2.67,0.1,0.15,150,105,12,180,Melachite Green,5,7,5,5,without Anion,1.3976,2,0,40,364.911,0.64,87.2
2 wt% Pd-BFO,960,2.1,0,26.1,16.99,0,0,0,0,54.9,0,2.01,0,22.9,0.0046,2.67,0.1,0.15,150,105,12,0,Melachite Green,5,7,5,5,without Anion,1.3976,2,0,40,364.911,5,0
2 wt% Pd-BFO,960,2.1,0,26.1,16.99,0,0,0,0,54.9,0,2.01,0,22.9,0.0046,2.67,0.1,0.15,150,105,12,120,Melachite Green,5,7,5,5,without Anion,1.3976,2,0,40,364.911,1.69,66.2
2 wt% Pd-BFO,960,2.1,0,26.1,16.99,0,0,0,0,54.9,0,2.01,0,22.9,0.0046,2.67,0.1,0.15,150,105,12,240,Melachite Green,5,7,5,5,without Anion,1.3976,2,0,40,364.911,0,100
2 wt% Pd-BFO,960,2.1,0,26.1,16.99,0,0,0,0,54.9,0,2.01,0,22.9,0.0046,2.67,0.1,0.15,150,105,12,60,Melachite Green,5,7,5,7,without Anion,1.3976,2,0,40,364.911,3.98,20.4
2 wt% Pd-BFO,960,2.1,0,26.1,16.99,0,0,0,0,54.9,0,2.01,0,22.9,0.0046,2.67,0.1,0.15,150,105,12,180,Melachite Green,5,7,5,7,without Anion,1.3976,2,0,40,364.911,1.21,75.8
2 wt% Pd-BFO,960,2.1,0,26.1,16.99,0,0,0,0,54.9,0,2.01,0,22.9,0.0046,2.67,0.1,0.15,150,105,12,0,Melachite Green,5,7,5,7,without Anion,1.3976,2,0,40,364.911,5,0
2 wt% Pd-BFO,960,2.1,0,26.1,16.99,0,0,0,0,54.9,0,2.01,0,22.9,0.0046,2.67,0.1,0.15,150,105,12,120,Melachite Green,5,7,5,7,without Anion,1.3976,2,0,40,364.911,2.52,49.6
2 wt% Pd-BFO,960,2.1,0,26.1,16.99,0,0,0,0,54.9,0,2.01,0,22.9,0.0046,2.67,0.1,0.15,150,105,12,240,Melachite Green,5,7,5,7,without Anion,1.3976,2,0,40,364.911,0.49,90.2
2 wt% Pd-BFO,960,2.1,0,26.1,16.99,0,0,0,0,54.9,0,2.01,0,22.9,0.0046,2.67,0.1,0.15,150,105,12,60,Melachite Green,5,7,5,7,without Anion,1.3976,2,0,40,364.911,3.95,21
2 wt% Pd-BFO,960,2.1,0,26.1,16.99,0,0,0,0,54.9,0,2.01,0,22.9,0.0046,2.67,0.1,0.15,150,105,12,180,Melachite Green,5,7,5,7,without Anion,1.3976,2,0,40,364.911,1.18,76.4
2 wt% Pd-BFO,960,2.1,0,26.1,16.99,0,0,0,0,54.9,0,2.01,0,22.9,0.0046,2.67,0.1,0.15,150,105,12,0,Melachite Green,5,7,5,10,without Anion,1.3976,2,0,40,364.911,5,0
2 wt% Pd-BFO,960,2.1,0,26.1,16.99,0,0,0,0,54.9,0,2.01,0,22.9,0.0046,2.67,0.1,0.15,150,105,12,120,Melachite Green,5,7,5,10,without Anion,1.3976,2,0,40,364.911,3.26,34.8
2 wt% Pd-BFO,960,2.1,0,26.1,16.99,0,0,0,0,54.9,0,2.01,0,22.9,0.0046,2.67,0.1,0.15,150,105,12,240,Melachite Green,5,7,5,10,without Anion,1.3976,2,0,40,364.911,1.05,79
2 wt% Pd-BFO,960,2.1,0,26.1,16.99,0,0,0,0,54.9,0,2.01,0,22.9,0.0046,2.67,0.1,0.15,150,105,12,60,Melachite Green,5,7,5,10,without Anion,1.3976,2,0,40,364.911,4.29,14.2
2 wt% Pd-BFO,960,2.1,0,26.1,16.99,0,0,0,0,54.9,0,2.01,0,22.9,0.0046,2.67,0.1,0.15,150,105,12,180,Melachite Green,5,7,5,10,without Anion,1.3976,2,0,40,364.911,2.13,57.4
2 wt% Pd-BFO,960,2.1,0,26.1,16.99,0,0,0,0,54.9,0,2.01,0,22.9,0.0046,2.67,0.1,0.15,150,105,12,0,Melachite Green,5,7,5,10,without Anion,1.3976,2,0,40,364.911,5,0
2 wt% Pd-BFO,960,2.1,0,26.1,16.99,0,0,0,0,54.9,0,2.01,0,22.9,0.0046,2.67,0.1,0.15,150,105,12,120,Melachite Green,5,7,5,10,without Anion,1.3976,2,0,40,364.911,3.23,35.4
2 wt% Pd-BFO,960,2.1,0,26.1,16.99,0,0,0,0,54.9,0,2.01,0,22.9,0.0046,2.67,0.1,0.15,150,105,12,240,Melachite Green,5,7,5,10,without Anion,1.3976,2,0,40,364.911,1.01,79.8
2 wt% Pd-BFO,960,2.1,0,26.1,16.99,0,0,0,0,54.9,0,2.01,0,22.9,0.0046,2.67,0.1,0.15,150,105,12,60,Melachite Green,5,7,5,0,NaCl,1.3976,2,0,40,364.911,4.21,15.8
2 wt% Pd-BFO,960,2.1,0,26.1,16.99,0,0,0,0,54.9,0,2.01,0,22.9,0.0046,2.67,0.1,0.15,150,105,12,180,Melachite Green,5,7,5,0,NaCl,1.3976,2,0,40,364.911,2.8,44
2 wt% Pd-BFO,960,2.1,0,26.1,16.99,0,0,0,0,54.9,0,2.01,0,22.9,0.0046,2.67,0.1,0.15,150,105,12,0,Melachite Green,5,7,5,0,NaCl,1.3976,2,0,40,364.911,5,0
2 wt% Pd-BFO,960,2.1,0,26.1,16.99,0,0,0,0,54.9,0,2.01,0,22.9,0.0046,2.67,0.1,0.15,150,105,12,120,Melachite Green,5,7,5,0,NaCl,1.3976,2,0,40,364.911,3.46,30.8
2 wt% Pd-BFO,960,2.1,0,26.1,16.99,0,0,0,0,54.9,0,2.01,0,22.9,0.0046,2.67,0.1,0.15,150,105,12,240,Melachite Green,5,7,5,0,NaCl,1.3976,2,0,40,364.911,2.11,57.8
2 wt% Pd-BFO,960,2.1,0,26.1,16.99,0,0,0,0,54.9,0,2.01,0,22.9,0.0046,2.67,0.1,0.15,150,105,12,60,Melachite Green,5,7,5,0,NaCl,1.3976,2,0,40,364.911,4.19,16.2
2 wt% Pd-BFO,960,2.1,0,26.1,16.99,0,0,0,0,54.9,0,2.01,0,22.9,0.0046,2.67,0.1,0.15,150,105,12,180,Melachite Green,5,7,5,0,NaCl,1.3976,2,0,40,364.911,2.7,46
2 wt% Pd-BFO,960,2.1,0,26.1,16.99,0,0,0,0,54.9,0,2.01,0,22.9,0.0046,2.67,0.1,0.15,150,105,12,0,Melachite Green,5,7,5,0,Na2SO4,1.3976,2,0,40,364.911,5,0
2 wt% Pd-BFO,960,2.1,0,26.1,16.99,0,0,0,0,54.9,0,2.01,0,22.9,0.0046,2.67,0.1,0.15,150,105,12,120,Melachite Green,5,7,5,0,Na2SO4,1.3976,2,0,40,364.911,2.3,54
2 wt% Pd-BFO,960,2.1,0,26.1,16.99,0,0,0,0,54.9,0,2.01,0,22.9,0.0046,2.67,0.1,0.15,150,105,12,240,Melachite Green,5,7,5,0,Na2SO4,1.3976,2,0,40,364.911,0.19,96.2
2 wt% Pd-BFO,960,2.1,0,26.1,16.99,0,0,0,0,54.9,0,2.01,0,22.9,0.0046,2.67,0.1,0.15,150,105,12,60,Melachite Green,5,7,5,0,Na2SO4,1.3976,2,0,40,364.911,3.47,30.6
2 wt% Pd-BFO,960,2.1,0,26.1,16.99,0,0,0,0,54.9,0,2.01,0,22.9,0.0046,2.67,0.1,0.15,150,105,12,180,Melachite Green,5,7,5,0,Na2SO4,1.3976,2,0,40,364.911,1.19,76.2
2 wt% Pd-BFO,960,2.1,0,26.1,16.99,0,0,0,0,54.9,0,2.01,0,22.9,0.0046,2.67,0.1,0.15,150,105,12,0,Melachite Green,5,7,5,0,Na2SO4,1.3976,2,0,40,364.911,5,0
2 wt% Pd-BFO,960,2.1,0,26.1,16.99,0,0,0,0,54.9,0,2.01,0,22.9,0.0046,2.67,0.1,0.15,150,105,12,120,Melachite Green,5,7,5,0,Na2SO4,1.3976,2,0,40,364.911,2.25,55
2 wt% Pd-BFO,960,2.1,0,26.1,16.99,0,0,0,0,54.9,0,2.01,0,22.9,0.0046,2.67,0.1,0.15,150,105,12,240,Melachite Green,5,7,5,0,Na2SO4,1.3976,2,0,40,364.911,0.14,97.2
2 wt% Pd-BFO,960,2.1,0,26.1,16.99,0,0,0,0,54.9,0,2.01,0,22.9,0.0046,2.67,0.1,0.15,150,105,12,60,Melachite Green,5,7,5,0,NaCO3,1.3976,2,0,40,364.911,1.14,77.2
2 wt% Pd-BFO,960,2.1,0,26.1,16.99,0,0,0,0,54.9,0,2.01,0,22.9,0.0046,2.67,0.1,0.15,150,105,12,180,Melachite Green,5,7,5,0,NaCO3,1.3976,2,0,40,364.911,0,100
2 wt% Pd-BFO,960,2.1,0,26.1,16.99,0,0,0,0,54.9,0,2.01,0,22.9,0.0046,2.67,0.1,0.15,150,105,12,0,Melachite Green,5,7,5,0,NaCO3,1.3976,2,0,40,364.911,5,0
2 wt% Pd-BFO,960,2.1,0,26.1,16.99,0,0,0,0,54.9,0,2.01,0,22.9,0.0046,2.67,0.1,0.15,150,105,12,120,Melachite Green,5,7,5,0,NaCO3,1.3976,2,0,40,364.911,0.33,93.4
2 wt% Pd-BFO,960,2.1,0,26.1,16.99,0,0,0,0,54.9,0,2.01,0,22.9,0.0046,2.67,0.1,0.15,150,105,12,240,Melachite Green,5,7,5,0,NaCO3,1.3976,2,0,40,364.911,0,100
2 wt% Pd-BFO,960,2.1,0,26.1,16.99,0,0,0,0,54.9,0,2.01,0,22.9,0.0046,2.67,0.1,0.15,150,105,12,60,Melachite Green,5,7,5,0,NaCO3,1.3976,2,0,40,364.911,1.26,74.8
2 wt% Pd-BFO,960,2.1,0,26.1,16.99,0,0,0,0,54.9,0,2.01,0,22.9,0.0046,2.67,0.1,0.15,150,105,12,180,Melachite Green,5,7,5,0,NaCO3,1.3976,2,0,40,364.911,0,100
2 wt% Pd-BFO,960,2.1,0,26.1,16.99,0,0,0,0,54.9,0,2.01,0,22.9,0.0046,2.67,0.1,0.15,150,105,12,0,Melachite Green,5,7,5,0,NaHCO3,1.3976,2,0,40,364.911,5,0
2 wt% Pd-BFO,960,2.1,0,26.1,16.99,0,0,0,0,54.9,0,2.01,0,22.9,0.0046,2.67,0.1,0.15,150,105,12,120,Melachite Green,5,7,5,0,NaHCO3,1.3976,2,0,40,364.911,1.23,75.4
2 wt% Pd-BFO,960,2.1,0,26.1,16.99,0,0,0,0,54.9,0,2.01,0,22.9,0.0046,2.67,0.1,0.15,150,105,12,240,Melachite Green,5,7,5,0,NaHCO3,1.3976,2,0,40,364.911,0,100
2 wt% Pd-BFO,960,2.1,0,26.1,16.99,0,0,0,0,54.9,0,2.01,0,22.9,0.0046,2.67,0.1,0.15,150,105,12,60,Melachite Green,5,7,5,0,NaHCO3,1.3976,2,0,40,364.911,2.65,47
2 wt% Pd-BFO,960,2.1,0,26.1,16.99,0,0,0,0,54.9,0,2.01,0,22.9,0.0046,2.67,0.1,0.15,150,105,12,180,Melachite Green,5,7,5,0,NaHCO3,1.3976,2,0,40,364.911,0.13,97.4
2 wt% Pd-BFO,960,2.1,0,26.1,16.99,0,0,0,0,54.9,0,2.01,0,22.9,0.0046,2.67,0.1,0.15,150,105,12,0,Melachite Green,5,7,5,0,NaHCO3,1.3976,2,0,40,364.911,5,0
2 wt% Pd-BFO,960,2.1,0,26.1,16.99,0,0,0,0,54.9,0,2.01,0,22.9,0.0046,2.67,0.1,0.15,150,105,12,120,Melachite Green,5,7,5,0,NaHCO3,1.3976,2,0,40,364.911,1.2,76
2 wt% Pd-BFO,960,2.1,0,26.1,16.99,0,0,0,0,54.9,0,2.01,0,22.9,0.0046,2.67,0.1,0.15,150,105,12,240,Melachite Green,5,7,5,0,NaHCO3,1.3976,2,0,40,364.911,0,100
2 wt% Pd-BFO,960,2.1,0,26.1,16.99,0,0,0,0,54.9,0,2.01,0,22.9,0.0046,2.67,0.1,0.15,150,105,12,60,Melachite Green,5,7,5,0,Na2HPO4,1.3976,2,0,40,364.911,3.97,20.6
2 wt% Pd-BFO,960,2.1,0,26.1,16.99,0,0,0,0,54.9,0,2.01,0,22.9,0.0046,2.67,0.1,0.15,150,105,12,180,Melachite Green,5,7,5,0,Na2HPO4,1.3976,2,0,40,364.911,2.33,53.4
2 wt% Pd-BFO,960,2.1,0,26.1,16.99,0,0,0,0,54.9,0,2.01,0,22.9,0.0046,2.67,0.1,0.15,150,105,12,0,Melachite Green,5,7,5,0,Na2HPO4,1.3976,2,0,40,364.911,5,0
2 wt% Pd-BFO,960,2.1,0,26.1,16.99,0,0,0,0,54.9,0,2.01,0,22.9,0.0046,2.67,0.1,0.15,150,105,12,120,Melachite Green,5,7,5,0,Na2HPO4,1.3976,2,0,40,364.911,3.11,37.8
2 wt% Pd-BFO,960,2.1,0,26.1,16.99,0,0,0,0,54.9,0,2.01,0,22.9,0.0046,2.67,0.1,0.15,150,105,12,240,Melachite Green,5,7,5,0,Na2HPO4,1.3976,2,0,40,364.911,1.46,70.8
2 wt% Pd-BFO,960,2.1,0,26.1,16.99,0,0,0,0,54.9,0,2.01,0,22.9,0.0046,2.67,0.1,0.15,150,105,12,60,Melachite Green,5,7,5,0,Na2HPO4,1.3976,2,0,40,364.911,3.89,22.2
2 wt% Pd-BFO,960,2.1,0,26.1,16.99,0,0,0,0,54.9,0,2.01,0,22.9,0.0046,2.67,0.1,0.15,150,105,12,180,Melachite Green,5,7,5,0,Na2HPO4,1.3976,2,0,40,364.911,2.25,55
2 wt% Pd-BFO,960,2.1,0,26.1,16.99,0,0,0,0,54.9,0,2.01,0,22.9,0.0046,2.67,0.1,0.15,150,105,12,270,Melachite Green,5,7,5,0,Na2HPO4,1.3976,2,0,40,364.911,1.05,79